subjID	trial	RT	stim_frame	key_response	choice	blockname	condition	stim_file	HSF_emo	LSF_emo	congruence
114192	2	0.9848932	6	e	1	BlockFvN	1	A	2	1	2
114192	6	0.9260564	6	e	1	BlockFvN	1	B	1	2	2
114192	9	0.8540085	6	e	1	BlockFvN	1	B	1	2	2
114192	11	0.8818579	6	e	1	BlockFvN	1	B	1	2	2
114192	12	0.9188752	6	e	1	BlockFvN	1	B	1	2	2
114192	13	0.9067912	6	e	1	BlockFvN	1	B	1	2	2
114192	15	0.9491237	6	f	0	BlockFvN	1	A	2	1	2
114192	16	0.8395533	6	e	1	BlockFvN	1	A	2	1	2
114192	17	1.0066028	6	f	0	BlockFvN	1	A	2	1	2
114192	24	0.8552576	6	f	0	BlockFvN	1	A	2	1	2
114192	51	0.987201	6	e	1	BlockFvN	1	B	1	2	2
114192	55	0.6123108	6	e	1	BlockFvN	1	A	2	1	2
114192	56	0.6594891	6	e	1	BlockFvN	1	B	1	2	2
114192	58	0.9457644	6	e	1	BlockFvN	1	B	1	2	2
114192	59	0.9329329	6	f	0	BlockFvN	1	A	2	1	2
114192	60	0.9666915	6	e	1	BlockFvN	1	B	1	2	2
114192	64	0.6803681	6	e	1	BlockFvN	1	A	2	1	2
114192	65	0.8545452	6	f	0	BlockFvN	1	A	2	1	2
114192	66	0.6843872	6	f	0	BlockFvN	1	A	2	1	2
114192	68	0.6005062	6	e	1	BlockFvN	1	A	2	1	2
114192	69	0.6805445	6	e	1	BlockFvN	1	B	1	2	2
114192	70	0.7088705	6	e	1	BlockFvN	1	B	1	2	2
114192	74	0.6685108	6	e	1	BlockFvN	1	A	2	1	2
114192	75	0.6487782	6	e	1	BlockFvN	1	B	1	2	2
114192	105	0.7675811	6	e	1	BlockFvN	1	A	2	1	2
114192	107	0.7517557	6	e	1	BlockFvN	1	B	1	2	2
114192	109	0.7460233	6	e	1	BlockFvN	1	B	1	2	2
114192	110	0.9639913	6	f	0	BlockFvN	1	A	2	1	2
114192	111	0.7567762	6	e	1	BlockFvN	1	A	2	1	2
114192	113	0.5437455	6	e	1	BlockFvN	1	B	1	2	2
114192	114	0.9773719	6	e	1	BlockFvN	1	A	2	1	2
114192	115	0.6902172	6	e	1	BlockFvN	1	B	1	2	2
114192	119	0.9532976	6	f	0	BlockFvN	1	A	2	1	2
114192	120	0.5401467	6	e	1	BlockFvN	1	B	1	2	2
114192	122	0.9437226	6	f	0	BlockFvN	1	A	2	1	2
114192	123	0.5628062	6	e	1	BlockFvN	1	B	1	2	2
114192	124	0.5948005	6	e	1	BlockFvN	1	B	1	2	2
114192	151	0.8948642	6	f	0	BlockFvN	1	A	2	1	2
114192	153	0.7633494	6	e	1	BlockFvN	1	B	1	2	2
114192	154	0.6781395	6	e	1	BlockFvN	1	B	1	2	2
114192	155	0.8988577	6	e	1	BlockFvN	1	A	2	1	2
114192	157	0.8121541	6	e	1	BlockFvN	1	B	1	2	2
114192	159	0.6285635	6	e	1	BlockFvN	1	A	2	1	2
114192	162	0.9970652	6	f	0	BlockFvN	1	A	2	1	2
114192	163	0.7424192	6	e	1	BlockFvN	1	A	2	1	2
114192	166	1.0027978	6	e	1	BlockFvN	1	B	1	2	2
114192	168	0.7404345	6	e	1	BlockFvN	1	A	2	1	2
114192	170	0.8788297	6	f	0	BlockFvN	1	A	2	1	2
114192	173	0.5910048	6	e	1	BlockFvN	1	B	1	2	2
114192	175	0.5919977	6	e	1	BlockFvN	1	B	1	2	2
114192	2	1.4816192	6	n	1	BlockN_1	3	A	2	1	2
114192	4	1.1312372	6	n	1	BlockN_1	3	B	1	2	2
114192	5	0.7741884	6	b	0	BlockN_1	3	A	2	1	2
114192	6	2.5587908	6	n	1	BlockN_1	3	B	1	2	2
114192	9	1.0381515	6	n	1	BlockN_1	3	B	1	2	2
114192	11	0.9175691	6	n	1	BlockN_1	3	B	1	2	2
114192	12	1.1452725	6	n	1	BlockN_1	3	B	1	2	2
114192	13	0.9169347	6	n	1	BlockN_1	3	B	1	2	2
114192	15	0.8497312	6	b	0	BlockN_1	3	A	2	1	2
114192	16	0.8071998	6	n	1	BlockN_1	3	A	2	1	2
114192	17	1.7260392	6	b	0	BlockN_1	3	A	2	1	2
114192	19	1.0152926	6	b	0	BlockN_1	3	A	2	1	2
114192	24	0.70025	6	b	0	BlockN_1	3	A	2	1	2
114192	26	1.1929142	6	n	0	BlockF_1	2	A	2	1	2
114192	27	0.9797988	6	b	1	BlockF_1	2	B	1	2	2
114192	28	0.8032342	6	b	1	BlockF_1	2	B	1	2	2
114192	29	0.7323051	6	b	1	BlockF_1	2	A	2	1	2
114192	30	0.6950535	6	b	1	BlockF_1	2	B	1	2	2
114192	34	0.7588006	6	n	0	BlockF_1	2	A	2	1	2
114192	36	0.6550197	6	b	1	BlockF_1	2	A	2	1	2
114192	38	0.5990079	6	b	1	BlockF_1	2	B	1	2	2
114192	39	0.7585712	6	b	1	BlockF_1	2	B	1	2	2
114192	41	0.6240804	6	b	1	BlockF_1	2	B	1	2	2
114192	43	0.6416624	6	b	1	BlockF_1	2	B	1	2	2
114192	44	0.6877353	6	n	0	BlockF_1	2	A	2	1	2
114192	49	0.7823003	6	n	0	BlockF_1	2	A	2	1	2
114192	105	0.7017338	6	n	1	BlockN_1	3	A	2	1	2
114192	107	0.8848073	6	b	0	BlockN_1	3	B	1	2	2
114192	109	1.9423316	6	n	1	BlockN_1	3	B	1	2	2
114192	110	0.8347516	6	b	0	BlockN_1	3	A	2	1	2
114192	111	0.7605788	6	n	1	BlockN_1	3	A	2	1	2
114192	113	0.6266247	6	n	1	BlockN_1	3	B	1	2	2
114192	114	0.7699041	6	b	0	BlockN_1	3	A	2	1	2
114192	115	0.6035256	6	n	1	BlockN_1	3	B	1	2	2
114192	119	0.8042686	6	b	0	BlockN_1	3	A	2	1	2
114192	120	0.635754	6	n	1	BlockN_1	3	B	1	2	2
114192	122	0.8448125	6	n	1	BlockN_1	3	A	2	1	2
114192	123	0.8521192	6	n	1	BlockN_1	3	B	1	2	2
114192	124	1.1129622	6	n	1	BlockN_1	3	B	1	2	2
114192	126	1.699207	6	n	0	BlockF_1	2	A	2	1	2
114192	127	0.8088311	6	b	1	BlockF_1	2	B	1	2	2
114192	130	0.7595198	6	b	1	BlockF_1	2	B	1	2	2
114192	131	0.6890805	6	b	1	BlockF_1	2	A	2	1	2
114192	132	0.7963384	6	b	1	BlockF_1	2	B	1	2	2
114192	134	0.8015027	6	b	1	BlockF_1	2	A	2	1	2
114192	136	0.6042078	6	b	1	BlockF_1	2	B	1	2	2
114192	139	1.673713	6	b	1	BlockF_1	2	A	2	1	2
114192	141	0.8224172	6	n	0	BlockF_1	2	A	2	1	2
114192	143	0.5551795	6	b	1	BlockF_1	2	B	1	2	2
114192	144	0.5726519	6	b	1	BlockF_1	2	A	2	1	2
114192	146	0.5917807	6	b	1	BlockF_1	2	B	1	2	2
114192	149	0.8833759	6	b	1	BlockF_1	2	B	1	2	2
114192	202	0.7293333	6	n	1	BlockN_1	3	A	2	1	2
114192	206	0.7390762	6	n	1	BlockN_1	3	B	1	2	2
114192	209	0.8316791	6	n	1	BlockN_1	3	B	1	2	2
114192	211	0.8450231	6	n	1	BlockN_1	3	B	1	2	2
114192	212	0.8035765	6	n	1	BlockN_1	3	B	1	2	2
114192	213	0.8604587	6	n	1	BlockN_1	3	B	1	2	2
114192	215	1.0280092	6	b	0	BlockN_1	3	A	2	1	2
114192	216	0.9317296	6	n	1	BlockN_1	3	A	2	1	2
114192	217	1.5906375	6	n	1	BlockN_1	3	A	2	1	2
114192	219	0.8123389	6	b	0	BlockN_1	3	A	2	1	2
114192	224	2.5296608	6	b	0	BlockN_1	3	A	2	1	2
114192	226	0.8131205	6	n	0	BlockF_1	2	A	2	1	2
114192	227	0.7718253	6	b	1	BlockF_1	2	B	1	2	2
114192	228	0.6210645	6	b	1	BlockF_1	2	B	1	2	2
114192	229	0.7164038	6	b	1	BlockF_1	2	A	2	1	2
114192	230	0.5836127	6	b	1	BlockF_1	2	B	1	2	2
114192	234	1.334611	6	n	0	BlockF_1	2	A	2	1	2
114192	236	0.6115977	6	b	1	BlockF_1	2	A	2	1	2
114192	238	3.0823215	6	b	1	BlockF_1	2	B	1	2	2
114192	239	0.7936659	6	b	1	BlockF_1	2	B	1	2	2
114192	241	3.262494	6	b	1	BlockF_1	2	B	1	2	2
114192	243	0.7818755	6	b	1	BlockF_1	2	A	2	1	2
114192	244	0.9990253	6	n	0	BlockF_1	2	A	2	1	2
114192	249	1.0745244	6	n	0	BlockF_1	2	A	2	1	2
114192	305	1.4940077	6	n	1	BlockN_1	3	A	2	1	2
114192	307	0.8291875	6	n	1	BlockN_1	3	B	1	2	2
114192	309	0.9448382	6	n	1	BlockN_1	3	B	1	2	2
114192	310	1.0766779	6	b	0	BlockN_1	3	A	2	1	2
114192	311	0.8651547	6	n	1	BlockN_1	3	A	2	1	2
114192	313	0.945012	6	n	1	BlockN_1	3	B	1	2	2
114192	314	0.9776154	6	b	0	BlockN_1	3	A	2	1	2
114192	315	1.0598207	6	n	1	BlockN_1	3	B	1	2	2
114192	319	1.0643839	6	b	0	BlockN_1	3	A	2	1	2
114192	320	1.3343334	6	n	1	BlockN_1	3	B	1	2	2
114192	322	0.7585743	6	b	0	BlockN_1	3	A	2	1	2
114192	323	1.4900207	6	n	1	BlockN_1	3	B	1	2	2
114192	324	3.549336	6	n	1	BlockN_1	3	B	1	2	2
114192	326	0.8111384	6	n	0	BlockF_1	2	A	2	1	2
114192	330	0.6680307	6	b	1	BlockF_1	2	B	1	2	2
114192	331	0.7453812	6	b	1	BlockF_1	2	A	2	1	2
114192	332	0.9950828	6	b	1	BlockF_1	2	B	1	2	2
114192	334	0.9001825	6	n	0	BlockF_1	2	A	2	1	2
114192	336	0.5030919	6	b	1	BlockF_1	2	B	1	2	2
114192	339	1.0834828	6	b	1	BlockF_1	2	A	2	1	2
114192	341	0.7409717	6	n	0	BlockF_1	2	A	2	1	2
114192	343	0.5895794	6	b	1	BlockF_1	2	B	1	2	2
114192	344	0.6060517	6	b	1	BlockF_1	2	A	2	1	2
114192	349	0.6716161	6	b	1	BlockF_1	2	B	1	2	2
136867	2	1.1042393	6	e	1	BlockFvN	1	A	2	1	2
136867	6	0.7825324	6	e	1	BlockFvN	1	B	1	2	2
136867	9	1.0722531	6	f	0	BlockFvN	1	B	1	2	2
136867	11	0.9151515	6	f	0	BlockFvN	1	B	1	2	2
136867	12	0.9983755	6	e	1	BlockFvN	1	B	1	2	2
136867	13	1.0314845	6	f	0	BlockFvN	1	B	1	2	2
136867	15	0.9371788	6	f	0	BlockFvN	1	A	2	1	2
136867	16	1.2115885	6	f	0	BlockFvN	1	A	2	1	2
136867	17	1.1076456	6	f	0	BlockFvN	1	A	2	1	2
136867	24	1.083438	6	f	0	BlockFvN	1	A	2	1	2
136867	51	1.0400121	6	e	1	BlockFvN	1	B	1	2	2
136867	55	0.977571	6	f	0	BlockFvN	1	A	2	1	2
136867	56	1.0110481	6	e	1	BlockFvN	1	B	1	2	2
136867	58	1.1705101	6	f	0	BlockFvN	1	B	1	2	2
136867	59	1.020592	6	e	1	BlockFvN	1	A	2	1	2
136867	60	0.93976	6	e	1	BlockFvN	1	B	1	2	2
136867	64	1.19167	6	f	0	BlockFvN	1	A	2	1	2
136867	65	1.0556311	6	f	0	BlockFvN	1	A	2	1	2
136867	66	1.6780556	6	f	0	BlockFvN	1	A	2	1	2
136867	68	1.785746	6	e	1	BlockFvN	1	A	2	1	2
136867	69	1.1477554	6	e	1	BlockFvN	1	B	1	2	2
136867	70	1.4301611	6	f	0	BlockFvN	1	B	1	2	2
136867	74	1.0967548	6	e	1	BlockFvN	1	A	2	1	2
136867	75	1.0290614	6	e	1	BlockFvN	1	B	1	2	2
136867	105	1.0385317	6	e	1	BlockFvN	1	A	2	1	2
136867	107	1.1828029	6	e	1	BlockFvN	1	B	1	2	2
136867	109	0.8450285	6	e	1	BlockFvN	1	B	1	2	2
136867	110	0.8186989	6	f	0	BlockFvN	1	A	2	1	2
136867	111	0.8737897	6	e	1	BlockFvN	1	A	2	1	2
136867	113	1.1090296	6	f	0	BlockFvN	1	B	1	2	2
136867	114	1.4879266	6	f	0	BlockFvN	1	A	2	1	2
136867	115	1.6286482	6	f	0	BlockFvN	1	B	1	2	2
136867	119	0.8769656	6	f	0	BlockFvN	1	A	2	1	2
136867	120	0.8501575	6	e	1	BlockFvN	1	B	1	2	2
136867	122	0.8417682	6	f	0	BlockFvN	1	A	2	1	2
136867	123	0.8007116	6	e	1	BlockFvN	1	B	1	2	2
136867	124	0.8246231	6	f	0	BlockFvN	1	B	1	2	2
136867	151	1.0900938	6	f	0	BlockFvN	1	A	2	1	2
136867	153	0.772053	6	e	1	BlockFvN	1	B	1	2	2
136867	154	0.7019869	6	e	1	BlockFvN	1	B	1	2	2
136867	155	0.9367152	6	f	0	BlockFvN	1	A	2	1	2
136867	157	0.8189359	6	e	1	BlockFvN	1	B	1	2	2
136867	159	1.1247528	6	f	0	BlockFvN	1	A	2	1	2
136867	162	0.844812	6	f	0	BlockFvN	1	A	2	1	2
136867	163	1.0414842	6	f	0	BlockFvN	1	A	2	1	2
136867	166	0.8282179	6	e	1	BlockFvN	1	B	1	2	2
136867	168	0.9889164	6	e	1	BlockFvN	1	A	2	1	2
136867	170	0.8347505	6	f	0	BlockFvN	1	A	2	1	2
136867	173	0.8080841	6	e	1	BlockFvN	1	B	1	2	2
136867	175	0.7941069	6	e	1	BlockFvN	1	B	1	2	2
136867	2	0.9801478	6	b	1	BlockF_1	2	A	2	1	2
136867	4	0.9595339	6	n	0	BlockF_1	2	B	1	2	2
136867	5	0.8486715	6	b	1	BlockF_1	2	A	2	1	2
136867	6	0.8707175	6	b	1	BlockF_1	2	B	1	2	2
136867	9	0.7915136	6	b	1	BlockF_1	2	B	1	2	2
136867	11	0.7777128	6	n	0	BlockF_1	2	B	1	2	2
136867	12	0.7552232	6	b	1	BlockF_1	2	B	1	2	2
136867	13	0.8139298	6	n	0	BlockF_1	2	B	1	2	2
136867	15	0.799366	6	n	0	BlockF_1	2	A	2	1	2
136867	16	1.0953059	6	b	1	BlockF_1	2	A	2	1	2
136867	17	0.7229458	6	n	0	BlockF_1	2	A	2	1	2
136867	19	0.8078771	6	n	0	BlockF_1	2	A	2	1	2
136867	24	0.9080677	6	n	0	BlockF_1	2	A	2	1	2
136867	26	1.2201672	6	b	0	BlockN_1	3	A	2	1	2
136867	27	1.0339873	6	n	1	BlockN_1	3	B	1	2	2
136867	28	1.3211228	6	n	1	BlockN_1	3	B	1	2	2
136867	29	1.2290208	6	b	0	BlockN_1	3	A	2	1	2
136867	30	1.4926993	6	b	0	BlockN_1	3	B	1	2	2
136867	34	1.1148471	6	b	0	BlockN_1	3	A	2	1	2
136867	36	1.3602247	6	n	1	BlockN_1	3	A	2	1	2
136867	38	1.3827769	6	n	1	BlockN_1	3	B	1	2	2
136867	39	1.6085312	6	b	0	BlockN_1	3	B	1	2	2
136867	41	1.2109728	6	b	0	BlockN_1	3	B	1	2	2
136867	43	1.537633	6	b	0	BlockN_1	3	B	1	2	2
136867	44	1.4845299	6	b	0	BlockN_1	3	A	2	1	2
136867	49	1.0753802	6	b	0	BlockN_1	3	A	2	1	2
136867	105	1.0513725	6	n	0	BlockF_1	2	A	2	1	2
136867	107	0.7529523	6	n	0	BlockF_1	2	B	1	2	2
136867	109	0.6891513	6	b	1	BlockF_1	2	B	1	2	2
136867	110	0.6383998	6	n	0	BlockF_1	2	A	2	1	2
136867	111	0.8916386	6	b	1	BlockF_1	2	A	2	1	2
136867	113	0.9784243	6	n	0	BlockF_1	2	B	1	2	2
136867	114	0.9146982	6	n	0	BlockF_1	2	A	2	1	2
136867	115	1.206641	6	n	0	BlockF_1	2	B	1	2	2
136867	119	0.6759862	6	n	0	BlockF_1	2	A	2	1	2
136867	120	0.8951415	6	b	1	BlockF_1	2	B	1	2	2
136867	122	0.902714	6	n	0	BlockF_1	2	A	2	1	2
136867	123	1.051241	6	b	1	BlockF_1	2	B	1	2	2
136867	124	0.8901468	6	n	0	BlockF_1	2	B	1	2	2
136867	126	0.9832633	6	b	0	BlockN_1	3	A	2	1	2
136867	127	0.7438871	6	n	1	BlockN_1	3	B	1	2	2
136867	130	0.783094	6	n	1	BlockN_1	3	B	1	2	2
136867	131	0.7268632	6	n	1	BlockN_1	3	A	2	1	2
136867	132	0.5952326	6	b	0	BlockN_1	3	B	1	2	2
136867	134	0.8182128	6	b	0	BlockN_1	3	A	2	1	2
136867	136	1.1386373	6	n	1	BlockN_1	3	B	1	2	2
136867	139	1.0336314	6	b	0	BlockN_1	3	A	2	1	2
136867	141	0.6862513	6	b	0	BlockN_1	3	A	2	1	2
136867	143	1.1452169	6	n	1	BlockN_1	3	B	1	2	2
136867	144	1.0107342	6	n	1	BlockN_1	3	A	2	1	2
136867	146	1.1755264	6	n	1	BlockN_1	3	B	1	2	2
136867	149	0.8220106	6	n	1	BlockN_1	3	B	1	2	2
136867	202	0.712035	6	b	1	BlockF_1	2	A	2	1	2
136867	206	1.0348776	6	b	1	BlockF_1	2	B	1	2	2
136867	209	0.9541986	6	n	0	BlockF_1	2	B	1	2	2
136867	211	1.0626583	6	b	1	BlockF_1	2	B	1	2	2
136867	212	0.8519389	6	b	1	BlockF_1	2	B	1	2	2
136867	213	1.5937653	6	n	0	BlockF_1	2	B	1	2	2
136867	215	0.7760782	6	n	0	BlockF_1	2	A	2	1	2
136867	216	0.8639659	6	b	1	BlockF_1	2	A	2	1	2
136867	217	1.0307461	6	n	0	BlockF_1	2	A	2	1	2
136867	219	0.8250043	6	n	0	BlockF_1	2	A	2	1	2
136867	224	0.833246	6	n	0	BlockF_1	2	A	2	1	2
136867	226	0.9513264	6	b	0	BlockN_1	3	A	2	1	2
136867	227	0.7463276	6	n	1	BlockN_1	3	B	1	2	2
136867	228	1.1079898	6	b	0	BlockN_1	3	B	1	2	2
136867	229	1.2645069	6	n	1	BlockN_1	3	A	2	1	2
136867	230	0.9832466	6	n	1	BlockN_1	3	B	1	2	2
136867	234	0.8484519	6	b	0	BlockN_1	3	A	2	1	2
136867	236	0.8079395	6	n	1	BlockN_1	3	A	2	1	2
136867	238	1.1888321	6	n	1	BlockN_1	3	B	1	2	2
136867	239	0.6219879	6	b	0	BlockN_1	3	B	1	2	2
136867	241	1.2613262	6	b	0	BlockN_1	3	B	1	2	2
136867	243	1.1275214	6	b	0	BlockN_1	3	A	2	1	2
136867	244	0.9625783	6	b	0	BlockN_1	3	A	2	1	2
136867	249	1.1146738	6	b	0	BlockN_1	3	A	2	1	2
136867	305	0.9519021	6	b	1	BlockF_1	2	A	2	1	2
136867	307	0.945176	6	n	0	BlockF_1	2	B	1	2	2
136867	309	0.7806768	6	b	1	BlockF_1	2	B	1	2	2
136867	310	0.7588883	6	n	0	BlockF_1	2	A	2	1	2
136867	311	0.9441387	6	b	1	BlockF_1	2	A	2	1	2
136867	313	0.9174991	6	n	0	BlockF_1	2	B	1	2	2
136867	314	0.9675435	6	n	0	BlockF_1	2	A	2	1	2
136867	315	1.1447426	6	n	0	BlockF_1	2	B	1	2	2
136867	319	0.7733306	6	n	0	BlockF_1	2	A	2	1	2
136867	320	0.7984415	6	b	1	BlockF_1	2	B	1	2	2
136867	322	0.7490185	6	n	0	BlockF_1	2	A	2	1	2
136867	323	1.0635589	6	b	1	BlockF_1	2	B	1	2	2
136867	324	0.8046699	6	n	0	BlockF_1	2	B	1	2	2
136867	326	0.8194573	6	b	0	BlockN_1	3	A	2	1	2
136867	330	0.6578833	6	n	1	BlockN_1	3	B	1	2	2
136867	331	0.719454	6	n	1	BlockN_1	3	A	2	1	2
136867	332	0.6348839	6	b	0	BlockN_1	3	B	1	2	2
136867	334	1.3350806	6	b	0	BlockN_1	3	A	2	1	2
136867	336	0.855135	6	n	1	BlockN_1	3	B	1	2	2
136867	339	0.8335306	6	n	1	BlockN_1	3	A	2	1	2
136867	341	0.632396	6	b	0	BlockN_1	3	A	2	1	2
136867	343	1.1426928	6	b	0	BlockN_1	3	B	1	2	2
136867	344	0.8018138	6	n	1	BlockN_1	3	A	2	1	2
136867	349	1.06784	6	n	1	BlockN_1	3	B	1	2	2
152317	2	0.8950313	6	e	1	BlockFvN	1	A	2	1	2
152317	6	0.5757951	6	e	1	BlockFvN	1	B	1	2	2
152317	9	0.4476849	6	e	1	BlockFvN	1	B	1	2	2
152317	11	0.527401	6	e	1	BlockFvN	1	B	1	2	2
152317	12	0.4511252	6	e	1	BlockFvN	1	B	1	2	2
152317	13	0.3763874	6	e	1	BlockFvN	1	B	1	2	2
152317	15	0.5770618	6	f	0	BlockFvN	1	A	2	1	2
152317	16	7.7761829	6	e	1	BlockFvN	1	A	2	1	2
152317	17	9.2557885	6	e	1	BlockFvN	1	A	2	1	2
152317	24	4.7029755	6	f	0	BlockFvN	1	A	2	1	2
152317	51	0.923457	6	e	1	BlockFvN	1	B	1	2	2
152317	55	0.955558	6	e	1	BlockFvN	1	A	2	1	2
152317	56	0.8282591	6	e	1	BlockFvN	1	B	1	2	2
152317	58	0.8631937	6	e	1	BlockFvN	1	B	1	2	2
152317	59	1.3159162	6	e	1	BlockFvN	1	A	2	1	2
152317	60	1.8641351	6	e	1	BlockFvN	1	B	1	2	2
152317	64	0.7967745	6	f	0	BlockFvN	1	A	2	1	2
152317	65	0.709395	6	f	0	BlockFvN	1	A	2	1	2
152317	66	0.8487223	6	f	0	BlockFvN	1	A	2	1	2
152317	68	0.8849229	6	e	1	BlockFvN	1	A	2	1	2
152317	69	1.0333933	6	e	1	BlockFvN	1	B	1	2	2
152317	70	0.7123302	6	f	0	BlockFvN	1	B	1	2	2
152317	74	0.998326	6	e	1	BlockFvN	1	A	2	1	2
152317	75	0.7269481	6	e	1	BlockFvN	1	B	1	2	2
152317	105	0.6685322	6	f	0	BlockFvN	1	A	2	1	2
152317	107	0.6653887	6	f	0	BlockFvN	1	B	1	2	2
152317	109	0.7847634	6	e	1	BlockFvN	1	B	1	2	2
152317	110	1.2418669	6	e	1	BlockFvN	1	A	2	1	2
152317	111	0.9125748	6	e	1	BlockFvN	1	A	2	1	2
152317	113	1.2164582	6	e	1	BlockFvN	1	B	1	2	2
152317	114	0.9844922	6	f	0	BlockFvN	1	A	2	1	2
152317	115	0.8731601	6	f	0	BlockFvN	1	B	1	2	2
152317	119	0.6974501	6	e	1	BlockFvN	1	A	2	1	2
152317	120	0.8686508	6	e	1	BlockFvN	1	B	1	2	2
152317	122	0.9622356	6	e	1	BlockFvN	1	A	2	1	2
152317	123	0.8989751	6	f	0	BlockFvN	1	B	1	2	2
152317	124	0.7442043	6	f	0	BlockFvN	1	B	1	2	2
152317	151	1.2041619	6	e	1	BlockFvN	1	A	2	1	2
152317	153	1.0294873	6	f	0	BlockFvN	1	B	1	2	2
152317	154	0.7083613	6	f	0	BlockFvN	1	B	1	2	2
152317	155	0.8634282	6	f	0	BlockFvN	1	A	2	1	2
152317	157	0.6820771	6	e	1	BlockFvN	1	B	1	2	2
152317	159	1.0535492	6	e	1	BlockFvN	1	A	2	1	2
152317	162	0.8078254	6	e	1	BlockFvN	1	A	2	1	2
152317	163	0.7358639	6	e	1	BlockFvN	1	A	2	1	2
152317	166	0.7944059	6	f	0	BlockFvN	1	B	1	2	2
152317	168	0.7650381	6	e	1	BlockFvN	1	A	2	1	2
152317	170	1.4060923	6	e	1	BlockFvN	1	A	2	1	2
152317	173	0.85065	6	e	1	BlockFvN	1	B	1	2	2
152317	175	0.7896397	6	e	1	BlockFvN	1	B	1	2	2
152317	2	1.5480156	6	b	1	BlockF_1	2	A	2	1	2
152317	4	1.4536178	6	b	1	BlockF_1	2	B	1	2	2
152317	5	0.9730914	6	b	1	BlockF_1	2	A	2	1	2
152317	6	0.9586226	6	b	1	BlockF_1	2	B	1	2	2
152317	9	0.7566286	6	b	1	BlockF_1	2	B	1	2	2
152317	11	0.7569588	6	b	1	BlockF_1	2	B	1	2	2
152317	12	0.6721366	6	b	1	BlockF_1	2	B	1	2	2
152317	13	0.6513955	6	n	0	BlockF_1	2	B	1	2	2
152317	15	1.1078936	6	b	1	BlockF_1	2	A	2	1	2
152317	16	0.7026397	6	b	1	BlockF_1	2	A	2	1	2
152317	17	0.8907871	6	b	1	BlockF_1	2	A	2	1	2
152317	19	0.7452044	6	n	0	BlockF_1	2	A	2	1	2
152317	24	0.9867832	6	n	0	BlockF_1	2	A	2	1	2
152317	26	5.7856175	6	n	1	BlockN_1	3	A	2	1	2
152317	27	1.0384185	6	n	1	BlockN_1	3	B	1	2	2
152317	28	0.7484873	6	n	1	BlockN_1	3	B	1	2	2
152317	29	0.823627	6	n	1	BlockN_1	3	A	2	1	2
152317	30	0.7345214	6	b	0	BlockN_1	3	B	1	2	2
152317	34	0.7483964	6	n	1	BlockN_1	3	A	2	1	2
152317	36	0.6284863	6	n	1	BlockN_1	3	A	2	1	2
152317	38	0.4335677	6	b	0	BlockN_1	3	B	1	2	2
152317	39	0.7453392	6	n	1	BlockN_1	3	B	1	2	2
152317	41	1.070872	6	n	1	BlockN_1	3	B	1	2	2
152317	43	1.3121173	6	n	1	BlockN_1	3	B	1	2	2
152317	44	1.4279125	6	n	1	BlockN_1	3	A	2	1	2
152317	49	0.6018027	6	b	0	BlockN_1	3	A	2	1	2
152317	105	0.6643854	6	b	1	BlockF_1	2	A	2	1	2
152317	107	0.8204468	6	b	1	BlockF_1	2	B	1	2	2
152317	109	1.1095308	6	n	0	BlockF_1	2	B	1	2	2
152317	110	1.0909849	6	n	0	BlockF_1	2	A	2	1	2
152317	111	0.7024828	6	b	1	BlockF_1	2	A	2	1	2
152317	113	1.2004896	6	n	0	BlockF_1	2	B	1	2	2
152317	114	0.8410546	6	n	0	BlockF_1	2	A	2	1	2
152317	115	0.6560003	6	n	0	BlockF_1	2	B	1	2	2
152317	119	0.9660967	6	b	1	BlockF_1	2	A	2	1	2
152317	120	0.6306387	6	b	1	BlockF_1	2	B	1	2	2
152317	122	0.6890548	6	b	1	BlockF_1	2	A	2	1	2
152317	123	0.5890678	6	b	1	BlockF_1	2	B	1	2	2
152317	124	0.8451777	6	b	1	BlockF_1	2	B	1	2	2
152317	126	0.8932501	6	b	0	BlockN_1	3	A	2	1	2
152317	127	3.2967705	6	b	0	BlockN_1	3	B	1	2	2
152317	130	0.9403264	6	n	1	BlockN_1	3	B	1	2	2
152317	131	0.7195709	6	n	1	BlockN_1	3	A	2	1	2
152317	132	0.858847	6	n	1	BlockN_1	3	B	1	2	2
152317	134	3.136081	6	b	0	BlockN_1	3	A	2	1	2
152317	136	0.6734406	6	n	1	BlockN_1	3	B	1	2	2
152317	139	0.8348123	6	n	1	BlockN_1	3	A	2	1	2
152317	141	1.5558918	6	b	0	BlockN_1	3	A	2	1	2
152317	143	0.7150764	6	n	1	BlockN_1	3	B	1	2	2
152317	144	0.6795338	6	n	1	BlockN_1	3	A	2	1	2
152317	146	0.6700021	6	b	0	BlockN_1	3	B	1	2	2
152317	149	0.654737	6	n	1	BlockN_1	3	B	1	2	2
152317	202	1.1357335	6	n	0	BlockF_1	2	A	2	1	2
152317	206	0.6876887	6	n	0	BlockF_1	2	B	1	2	2
152317	209	0.6580423	6	b	1	BlockF_1	2	B	1	2	2
152317	211	0.8223539	6	b	1	BlockF_1	2	B	1	2	2
152317	212	0.7168212	6	b	1	BlockF_1	2	B	1	2	2
152317	213	0.7603333	6	n	0	BlockF_1	2	B	1	2	2
152317	215	0.6395641	6	b	1	BlockF_1	2	A	2	1	2
152317	216	0.8615741	6	b	1	BlockF_1	2	A	2	1	2
152317	217	0.8498649	6	n	0	BlockF_1	2	A	2	1	2
152317	219	0.7889825	6	b	1	BlockF_1	2	A	2	1	2
152317	224	0.9293882	6	b	1	BlockF_1	2	A	2	1	2
152317	226	1.3929134	6	n	1	BlockN_1	3	A	2	1	2
152317	227	0.6901561	6	n	1	BlockN_1	3	B	1	2	2
152317	228	0.6694132	6	n	1	BlockN_1	3	B	1	2	2
152317	229	0.6336879	6	n	1	BlockN_1	3	A	2	1	2
152317	230	1.1762893	6	n	1	BlockN_1	3	B	1	2	2
152317	234	0.7357801	6	b	0	BlockN_1	3	A	2	1	2
152317	236	0.5798177	6	n	1	BlockN_1	3	A	2	1	2
152317	238	0.7910817	6	b	0	BlockN_1	3	B	1	2	2
152317	239	0.6070352	6	n	1	BlockN_1	3	B	1	2	2
152317	241	0.6377985	6	b	0	BlockN_1	3	B	1	2	2
152317	243	0.7548787	6	n	1	BlockN_1	3	A	2	1	2
152317	244	0.5410979	6	n	1	BlockN_1	3	A	2	1	2
152317	249	0.8781207	6	n	1	BlockN_1	3	A	2	1	2
152317	305	0.51634	6	b	1	BlockF_1	2	A	2	1	2
152317	307	0.5818813	6	b	1	BlockF_1	2	B	1	2	2
152317	309	0.8653891	6	n	0	BlockF_1	2	B	1	2	2
152317	310	0.6631569	6	n	0	BlockF_1	2	A	2	1	2
152317	311	0.6925311	6	b	1	BlockF_1	2	A	2	1	2
152317	313	0.9419365	6	n	0	BlockF_1	2	B	1	2	2
152317	314	0.7203802	6	n	0	BlockF_1	2	A	2	1	2
152317	315	0.7460732	6	n	0	BlockF_1	2	B	1	2	2
152317	319	0.6457639	6	b	1	BlockF_1	2	A	2	1	2
152317	320	0.5322837	6	b	1	BlockF_1	2	B	1	2	2
152317	322	0.9397275	6	b	1	BlockF_1	2	A	2	1	2
152317	323	0.9755733	6	b	1	BlockF_1	2	B	1	2	2
152317	324	0.7213404	6	b	1	BlockF_1	2	B	1	2	2
152317	326	1.5830668	6	n	1	BlockN_1	3	A	2	1	2
152317	330	0.8446772	6	n	1	BlockN_1	3	B	1	2	2
152317	331	0.6761613	6	n	1	BlockN_1	3	A	2	1	2
152317	332	0.7048778	6	n	1	BlockN_1	3	B	1	2	2
152317	334	0.9880052	6	n	1	BlockN_1	3	A	2	1	2
152317	336	0.6735248	6	n	1	BlockN_1	3	B	1	2	2
152317	339	0.7188272	6	n	1	BlockN_1	3	A	2	1	2
152317	341	1.09585	6	n	1	BlockN_1	3	A	2	1	2
152317	343	0.6597768	6	n	1	BlockN_1	3	B	1	2	2
152317	344	0.5459962	6	n	1	BlockN_1	3	A	2	1	2
152317	349	0.7608428	6	n	1	BlockN_1	3	B	1	2	2
160211	2	0.8489021	6	f	0	BlockFvN	1	A	2	1	2
160211	6	0.6562492	6	e	1	BlockFvN	1	B	1	2	2
160211	9	0.6943244	6	f	0	BlockFvN	1	B	1	2	2
160211	11	0.4722684	6	f	0	BlockFvN	1	B	1	2	2
160211	12	0.4116803	6	e	1	BlockFvN	1	B	1	2	2
160211	13	0.3392026	6	e	1	BlockFvN	1	B	1	2	2
160211	15	0.3728315	6	e	1	BlockFvN	1	A	2	1	2
160211	16	0.5101289	6	f	0	BlockFvN	1	A	2	1	2
160211	17	0.4651976	6	f	0	BlockFvN	1	A	2	1	2
160211	24	0.4008127	6	f	0	BlockFvN	1	A	2	1	2
160211	51	0.6908976	6	e	1	BlockFvN	1	B	1	2	2
160211	55	0.6413873	6	e	1	BlockFvN	1	A	2	1	2
160211	56	0.4801437	6	e	1	BlockFvN	1	B	1	2	2
160211	58	0.5844793	6	e	1	BlockFvN	1	B	1	2	2
160211	59	0.6489411	6	e	1	BlockFvN	1	A	2	1	2
160211	60	0.5181908	6	e	1	BlockFvN	1	B	1	2	2
160211	64	0.4707586	6	f	0	BlockFvN	1	A	2	1	2
160211	65	0.4593659	6	f	0	BlockFvN	1	A	2	1	2
160211	66	0.432571	6	f	0	BlockFvN	1	A	2	1	2
160211	68	0.5075778	6	f	0	BlockFvN	1	A	2	1	2
160211	69	0.4633147	6	e	1	BlockFvN	1	B	1	2	2
160211	70	0.8359431	6	e	1	BlockFvN	1	B	1	2	2
160211	74	0.7053278	6	e	1	BlockFvN	1	A	2	1	2
160211	75	0.6374377	6	e	1	BlockFvN	1	B	1	2	2
160211	105	0.8270072	6	f	0	BlockFvN	1	A	2	1	2
160211	107	0.7403429	6	e	1	BlockFvN	1	B	1	2	2
160211	109	0.6441256	6	e	1	BlockFvN	1	B	1	2	2
160211	110	0.561216	6	f	0	BlockFvN	1	A	2	1	2
160211	111	0.8512159	6	e	1	BlockFvN	1	A	2	1	2
160211	113	0.6172155	6	e	1	BlockFvN	1	B	1	2	2
160211	114	0.7285059	6	f	0	BlockFvN	1	A	2	1	2
160211	115	0.579272	6	e	1	BlockFvN	1	B	1	2	2
160211	119	0.5217535	6	f	0	BlockFvN	1	A	2	1	2
160211	120	0.54044	6	e	1	BlockFvN	1	B	1	2	2
160211	122	0.4628942	6	f	0	BlockFvN	1	A	2	1	2
160211	123	0.5656398	6	e	1	BlockFvN	1	B	1	2	2
160211	124	0.4870852	6	f	0	BlockFvN	1	B	1	2	2
160211	151	0.6153926	6	f	0	BlockFvN	1	A	2	1	2
160211	153	0.607453	6	e	1	BlockFvN	1	B	1	2	2
160211	154	0.60672	6	e	1	BlockFvN	1	B	1	2	2
160211	155	0.6050821	6	f	0	BlockFvN	1	A	2	1	2
160211	157	0.5309591	6	e	1	BlockFvN	1	B	1	2	2
160211	159	0.6328929	6	f	0	BlockFvN	1	A	2	1	2
160211	162	0.4738208	6	f	0	BlockFvN	1	A	2	1	2
160211	163	0.5575658	6	e	1	BlockFvN	1	A	2	1	2
160211	166	0.6185773	6	e	1	BlockFvN	1	B	1	2	2
160211	168	0.555073	6	e	1	BlockFvN	1	A	2	1	2
160211	170	0.5419821	6	f	0	BlockFvN	1	A	2	1	2
160211	173	0.4395316	6	e	1	BlockFvN	1	B	1	2	2
160211	175	0.5794775	6	e	1	BlockFvN	1	B	1	2	2
160211	2	0.9135794	6	n	0	BlockF_1	2	A	2	1	2
160211	4	0.5340086	6	b	1	BlockF_1	2	B	1	2	2
160211	5	0.6170752	6	n	0	BlockF_1	2	A	2	1	2
160211	6	0.6157493	6	b	1	BlockF_1	2	B	1	2	2
160211	9	0.850121	6	n	0	BlockF_1	2	B	1	2	2
160211	11	0.5076234	6	b	1	BlockF_1	2	B	1	2	2
160211	12	0.5132664	6	b	1	BlockF_1	2	B	1	2	2
160211	13	0.4841902	6	b	1	BlockF_1	2	B	1	2	2
160211	15	0.6884609	6	n	0	BlockF_1	2	A	2	1	2
160211	16	0.7004395	6	b	1	BlockF_1	2	A	2	1	2
160211	17	0.6478387	6	n	0	BlockF_1	2	A	2	1	2
160211	19	0.7292272	6	n	0	BlockF_1	2	A	2	1	2
160211	24	0.6340598	6	n	0	BlockF_1	2	A	2	1	2
160211	26	0.6030635	6	b	0	BlockN_1	3	A	2	1	2
160211	27	0.5726671	6	n	1	BlockN_1	3	B	1	2	2
160211	28	0.8136204	6	n	1	BlockN_1	3	B	1	2	2
160211	29	0.7398976	6	b	0	BlockN_1	3	A	2	1	2
160211	30	0.6558133	6	n	1	BlockN_1	3	B	1	2	2
160211	34	0.8706029	6	b	0	BlockN_1	3	A	2	1	2
160211	36	0.4963738	6	n	1	BlockN_1	3	A	2	1	2
160211	38	0.4976336	6	n	1	BlockN_1	3	B	1	2	2
160211	39	0.7739227	6	n	1	BlockN_1	3	B	1	2	2
160211	41	0.5593049	6	n	1	BlockN_1	3	B	1	2	2
160211	43	0.5322899	6	n	1	BlockN_1	3	B	1	2	2
160211	44	0.8720693	6	b	0	BlockN_1	3	A	2	1	2
160211	49	0.8763941	6	b	0	BlockN_1	3	A	2	1	2
160211	105	0.6265245	6	n	0	BlockF_1	2	A	2	1	2
160211	107	0.7834348	6	b	1	BlockF_1	2	B	1	2	2
160211	109	0.4866109	6	b	1	BlockF_1	2	B	1	2	2
160211	110	0.5537816	6	n	0	BlockF_1	2	A	2	1	2
160211	111	0.8757333	6	n	0	BlockF_1	2	A	2	1	2
160211	113	0.8973015	6	b	1	BlockF_1	2	B	1	2	2
160211	114	0.6140709	6	n	0	BlockF_1	2	A	2	1	2
160211	115	1.0446275	6	b	1	BlockF_1	2	B	1	2	2
160211	119	1.0326281	6	n	0	BlockF_1	2	A	2	1	2
160211	120	0.5504802	6	b	1	BlockF_1	2	B	1	2	2
160211	122	0.9097391	6	n	0	BlockF_1	2	A	2	1	2
160211	123	0.4976941	6	b	1	BlockF_1	2	B	1	2	2
160211	124	0.6762084	6	b	1	BlockF_1	2	B	1	2	2
160211	126	0.665342	6	b	0	BlockN_1	3	A	2	1	2
160211	127	0.6307324	6	n	1	BlockN_1	3	B	1	2	2
160211	130	0.5864002	6	n	1	BlockN_1	3	B	1	2	2
160211	131	0.8099068	6	n	1	BlockN_1	3	A	2	1	2
160211	132	0.4498958	6	n	1	BlockN_1	3	B	1	2	2
160211	134	0.7815266	6	b	0	BlockN_1	3	A	2	1	2
160211	136	0.6129687	6	n	1	BlockN_1	3	B	1	2	2
160211	139	0.9084293	6	b	0	BlockN_1	3	A	2	1	2
160211	141	0.6349749	6	b	0	BlockN_1	3	A	2	1	2
160211	143	0.7511452	6	n	1	BlockN_1	3	B	1	2	2
160211	144	0.5985274	6	n	1	BlockN_1	3	A	2	1	2
160211	146	0.5115701	6	n	1	BlockN_1	3	B	1	2	2
160211	149	0.5777992	6	n	1	BlockN_1	3	B	1	2	2
160211	202	0.5408253	6	b	1	BlockF_1	2	A	2	1	2
160211	206	0.5824593	6	n	0	BlockF_1	2	B	1	2	2
160211	209	0.5500252	6	b	1	BlockF_1	2	B	1	2	2
160211	211	0.4332119	6	b	1	BlockF_1	2	B	1	2	2
160211	212	0.392171	6	b	1	BlockF_1	2	B	1	2	2
160211	213	0.5614447	6	b	1	BlockF_1	2	B	1	2	2
160211	215	0.3302471	6	b	1	BlockF_1	2	A	2	1	2
160211	216	0.4198063	6	b	1	BlockF_1	2	A	2	1	2
160211	217	0.554922	6	b	1	BlockF_1	2	A	2	1	2
160211	219	0.452013	6	b	1	BlockF_1	2	A	2	1	2
160211	224	0.7247526	6	n	0	BlockF_1	2	A	2	1	2
160211	226	0.6989312	6	b	0	BlockN_1	3	A	2	1	2
160211	227	0.5503073	6	n	1	BlockN_1	3	B	1	2	2
160211	228	0.8401448	6	n	1	BlockN_1	3	B	1	2	2
160211	229	0.7044386	6	n	1	BlockN_1	3	A	2	1	2
160211	230	0.5066293	6	n	1	BlockN_1	3	B	1	2	2
160211	234	0.5402288	6	b	0	BlockN_1	3	A	2	1	2
160211	236	0.4449227	6	n	1	BlockN_1	3	A	2	1	2
160211	238	0.5290809	6	n	1	BlockN_1	3	B	1	2	2
160211	239	0.7242014	6	n	1	BlockN_1	3	B	1	2	2
160211	241	0.5651972	6	n	1	BlockN_1	3	B	1	2	2
160211	243	0.7683458	6	b	0	BlockN_1	3	A	2	1	2
160211	244	0.4884969	6	b	0	BlockN_1	3	A	2	1	2
160211	249	0.5955698	6	b	0	BlockN_1	3	A	2	1	2
160211	305	0.5787348	6	n	0	BlockF_1	2	A	2	1	2
160211	307	0.455832	6	b	1	BlockF_1	2	B	1	2	2
160211	309	0.6367137	6	b	1	BlockF_1	2	B	1	2	2
160211	310	0.6994265	6	n	0	BlockF_1	2	A	2	1	2
160211	311	0.5839732	6	b	1	BlockF_1	2	A	2	1	2
160211	313	0.5553217	6	b	1	BlockF_1	2	B	1	2	2
160211	314	0.6840258	6	n	0	BlockF_1	2	A	2	1	2
160211	315	0.5524892	6	b	1	BlockF_1	2	B	1	2	2
160211	319	0.4483236	6	b	1	BlockF_1	2	A	2	1	2
160211	320	0.7430348	6	n	0	BlockF_1	2	B	1	2	2
160211	322	1.2358185	6	b	1	BlockF_1	2	A	2	1	2
160211	323	0.6032135	6	b	1	BlockF_1	2	B	1	2	2
160211	324	0.4917827	6	b	1	BlockF_1	2	B	1	2	2
160211	326	0.7282236	6	b	0	BlockN_1	3	A	2	1	2
160211	330	0.5723778	6	n	1	BlockN_1	3	B	1	2	2
160211	331	0.6677863	6	n	1	BlockN_1	3	A	2	1	2
160211	332	0.4409441	6	n	1	BlockN_1	3	B	1	2	2
160211	334	0.4860135	6	n	1	BlockN_1	3	A	2	1	2
160211	336	0.4019367	6	n	1	BlockN_1	3	B	1	2	2
160211	339	0.5966955	6	n	1	BlockN_1	3	A	2	1	2
160211	341	0.6004064	6	b	0	BlockN_1	3	A	2	1	2
160211	343	0.7467211	6	n	1	BlockN_1	3	B	1	2	2
160211	344	0.5167876	6	n	1	BlockN_1	3	A	2	1	2
160211	349	0.8406312	6	n	1	BlockN_1	3	B	1	2	2
185005	2	1.0404954	6	f	0	BlockFvN	1	A	2	1	2
185005	6	0.7646506	6	e	1	BlockFvN	1	B	1	2	2
185005	9	0.7510351	6	e	1	BlockFvN	1	B	1	2	2
185005	11	0.9297572	6	f	0	BlockFvN	1	B	1	2	2
185005	12	0.838185	6	e	1	BlockFvN	1	B	1	2	2
185005	13	1.0832043	6	e	1	BlockFvN	1	B	1	2	2
185005	15	0.9642685	6	f	0	BlockFvN	1	A	2	1	2
185005	16	0.9985289	6	f	0	BlockFvN	1	A	2	1	2
185005	17	0.9823726	6	f	0	BlockFvN	1	A	2	1	2
185005	24	1.1999674	6	f	0	BlockFvN	1	A	2	1	2
185005	51	1.2237359	6	e	1	BlockFvN	1	B	1	2	2
185005	55	0.7741663	6	f	0	BlockFvN	1	A	2	1	2
185005	56	0.9273305	6	e	1	BlockFvN	1	B	1	2	2
185005	58	0.9947765	6	e	1	BlockFvN	1	B	1	2	2
185005	59	0.8817878	6	f	0	BlockFvN	1	A	2	1	2
185005	60	0.9835059	6	f	0	BlockFvN	1	B	1	2	2
185005	64	1.4373909	6	f	0	BlockFvN	1	A	2	1	2
185005	65	0.8927718	6	f	0	BlockFvN	1	A	2	1	2
185005	66	1.0571226	6	f	0	BlockFvN	1	A	2	1	2
185005	68	1.2482817	6	e	1	BlockFvN	1	A	2	1	2
185005	69	1.0482791	6	e	1	BlockFvN	1	B	1	2	2
185005	70	1.031754	6	e	1	BlockFvN	1	B	1	2	2
185005	74	1.1167726	6	e	1	BlockFvN	1	A	2	1	2
185005	75	0.9185646	6	f	0	BlockFvN	1	B	1	2	2
185005	105	1.2291391	6	e	1	BlockFvN	1	A	2	1	2
185005	107	0.992859	6	e	1	BlockFvN	1	B	1	2	2
185005	109	0.8907982	6	e	1	BlockFvN	1	B	1	2	2
185005	110	0.8941893	6	f	0	BlockFvN	1	A	2	1	2
185005	111	0.8988102	6	e	1	BlockFvN	1	A	2	1	2
185005	113	0.8616417	6	e	1	BlockFvN	1	B	1	2	2
185005	114	0.9953288	6	e	1	BlockFvN	1	A	2	1	2
185005	115	0.8025183	6	e	1	BlockFvN	1	B	1	2	2
185005	119	0.947053	6	f	0	BlockFvN	1	A	2	1	2
185005	120	0.9642243	6	e	1	BlockFvN	1	B	1	2	2
185005	122	0.7202217	6	f	0	BlockFvN	1	A	2	1	2
185005	123	0.6020203	6	e	1	BlockFvN	1	B	1	2	2
185005	124	1.1777139	6	e	1	BlockFvN	1	B	1	2	2
185005	151	1.0847287	6	f	0	BlockFvN	1	A	2	1	2
185005	153	0.5968611	6	f	0	BlockFvN	1	B	1	2	2
185005	154	0.8223086	6	e	1	BlockFvN	1	B	1	2	2
185005	155	0.6845207	6	f	0	BlockFvN	1	A	2	1	2
185005	157	0.7841795	6	f	0	BlockFvN	1	B	1	2	2
185005	159	0.6601857	6	f	0	BlockFvN	1	A	2	1	2
185005	162	0.7900109	6	f	0	BlockFvN	1	A	2	1	2
185005	163	0.8966825	6	f	0	BlockFvN	1	A	2	1	2
185005	166	1.0118169	6	f	0	BlockFvN	1	B	1	2	2
185005	168	0.9501578	6	e	1	BlockFvN	1	A	2	1	2
185005	170	1.0221646	6	f	0	BlockFvN	1	A	2	1	2
185005	173	0.9777696	6	e	1	BlockFvN	1	B	1	2	2
185005	175	1.5107013	6	e	1	BlockFvN	1	B	1	2	2
185005	2	0.5727832	6	b	0	BlockN_1	3	A	2	1	2
185005	4	0.7045723	6	b	0	BlockN_1	3	B	1	2	2
185005	5	0.8599581	6	n	1	BlockN_1	3	A	2	1	2
185005	6	0.7378977	6	n	1	BlockN_1	3	B	1	2	2
185005	9	0.7528293	6	n	1	BlockN_1	3	B	1	2	2
185005	11	0.7878037	6	n	1	BlockN_1	3	B	1	2	2
185005	12	0.7153806	6	n	1	BlockN_1	3	B	1	2	2
185005	13	0.8229726	6	n	1	BlockN_1	3	B	1	2	2
185005	15	0.9140454	6	b	0	BlockN_1	3	A	2	1	2
185005	16	0.9498678	6	n	1	BlockN_1	3	A	2	1	2
185005	17	1.318679	6	n	1	BlockN_1	3	A	2	1	2
185005	19	1.5520146	6	n	1	BlockN_1	3	A	2	1	2
185005	24	0.8079672	6	b	0	BlockN_1	3	A	2	1	2
185005	26	0.8390329	6	b	1	BlockF_1	2	A	2	1	2
185005	27	0.6846376	6	b	1	BlockF_1	2	B	1	2	2
185005	28	0.761922	6	b	1	BlockF_1	2	B	1	2	2
185005	29	0.8195913	6	n	0	BlockF_1	2	A	2	1	2
185005	30	0.7471169	6	b	1	BlockF_1	2	B	1	2	2
185005	34	0.6906208	6	n	0	BlockF_1	2	A	2	1	2
185005	36	0.8165918	6	b	1	BlockF_1	2	A	2	1	2
185005	38	0.812084	6	b	1	BlockF_1	2	B	1	2	2
185005	39	0.7077179	6	b	1	BlockF_1	2	B	1	2	2
185005	41	0.902346	6	b	1	BlockF_1	2	B	1	2	2
185005	43	0.8636757	6	b	1	BlockF_1	2	B	1	2	2
185005	44	0.8541381	6	b	1	BlockF_1	2	A	2	1	2
185005	49	1.5240423	6	n	0	BlockF_1	2	A	2	1	2
185005	105	0.8577717	6	b	0	BlockN_1	3	A	2	1	2
185005	107	0.8264577	6	n	1	BlockN_1	3	B	1	2	2
185005	109	0.7895666	6	n	1	BlockN_1	3	B	1	2	2
185005	110	0.6540523	6	b	0	BlockN_1	3	A	2	1	2
185005	111	0.7472412	6	n	1	BlockN_1	3	A	2	1	2
185005	113	0.6891087	6	n	1	BlockN_1	3	B	1	2	2
185005	114	0.7819549	6	n	1	BlockN_1	3	A	2	1	2
185005	115	0.7923438	6	n	1	BlockN_1	3	B	1	2	2
185005	119	0.9734911	6	b	0	BlockN_1	3	A	2	1	2
185005	120	0.7815424	6	n	1	BlockN_1	3	B	1	2	2
185005	122	0.8124992	6	b	0	BlockN_1	3	A	2	1	2
185005	123	0.7728375	6	n	1	BlockN_1	3	B	1	2	2
185005	124	1.8545659	6	n	1	BlockN_1	3	B	1	2	2
185005	126	0.7694295	6	n	0	BlockF_1	2	A	2	1	2
185005	127	0.6490838	6	b	1	BlockF_1	2	B	1	2	2
185005	130	0.5373224	6	b	1	BlockF_1	2	B	1	2	2
185005	131	0.8441737	6	b	1	BlockF_1	2	A	2	1	2
185005	132	0.8654735	6	b	1	BlockF_1	2	B	1	2	2
185005	134	0.7451071	6	b	1	BlockF_1	2	A	2	1	2
185005	136	0.5989531	6	b	1	BlockF_1	2	B	1	2	2
185005	139	0.5052102	6	b	1	BlockF_1	2	A	2	1	2
185005	141	0.6372368	6	n	0	BlockF_1	2	A	2	1	2
185005	143	0.6324581	6	b	1	BlockF_1	2	B	1	2	2
185005	144	0.8700843	6	b	1	BlockF_1	2	A	2	1	2
185005	146	2.4994612	6	b	1	BlockF_1	2	B	1	2	2
185005	149	0.8206571	6	b	1	BlockF_1	2	B	1	2	2
185005	202	0.5078718	6	b	0	BlockN_1	3	A	2	1	2
185005	206	0.7122902	6	n	1	BlockN_1	3	B	1	2	2
185005	209	0.7274701	6	n	1	BlockN_1	3	B	1	2	2
185005	211	1.612536	6	b	0	BlockN_1	3	B	1	2	2
185005	212	0.7879869	6	n	1	BlockN_1	3	B	1	2	2
185005	213	0.7008479	6	n	1	BlockN_1	3	B	1	2	2
185005	215	0.8839331	6	b	0	BlockN_1	3	A	2	1	2
185005	216	1.1263861	6	n	1	BlockN_1	3	A	2	1	2
185005	217	1.5554012	6	n	1	BlockN_1	3	A	2	1	2
185005	219	0.9120498	6	b	0	BlockN_1	3	A	2	1	2
185005	224	1.0731046	6	b	0	BlockN_1	3	A	2	1	2
185005	226	3.2083692	6	b	1	BlockF_1	2	A	2	1	2
185005	227	0.9790326	6	b	1	BlockF_1	2	B	1	2	2
185005	228	0.8684212	6	b	1	BlockF_1	2	B	1	2	2
185005	229	0.7940633	6	b	1	BlockF_1	2	A	2	1	2
185005	230	0.8498723	6	b	1	BlockF_1	2	B	1	2	2
185005	234	0.6118281	6	n	0	BlockF_1	2	A	2	1	2
185005	236	0.6599638	6	b	1	BlockF_1	2	A	2	1	2
185005	238	0.891045	6	b	1	BlockF_1	2	B	1	2	2
185005	239	0.9431701	6	n	0	BlockF_1	2	B	1	2	2
185005	241	0.6474882	6	b	1	BlockF_1	2	B	1	2	2
185005	243	0.8589812	6	n	0	BlockF_1	2	A	2	1	2
185005	244	0.898461	6	b	1	BlockF_1	2	A	2	1	2
185005	249	1.0816979	6	n	0	BlockF_1	2	A	2	1	2
185005	305	1.0440776	6	n	1	BlockN_1	3	A	2	1	2
185005	307	1.0156116	6	b	0	BlockN_1	3	B	1	2	2
185005	309	0.7366038	6	n	1	BlockN_1	3	B	1	2	2
185005	310	0.6352222	6	b	0	BlockN_1	3	A	2	1	2
185005	311	1.7549047	6	n	1	BlockN_1	3	A	2	1	2
185005	313	0.8108589	6	n	1	BlockN_1	3	B	1	2	2
185005	314	0.7209602	6	n	1	BlockN_1	3	A	2	1	2
185005	315	1.004165	6	n	1	BlockN_1	3	B	1	2	2
185005	319	0.7348448	6	b	0	BlockN_1	3	A	2	1	2
185005	320	0.8093429	6	n	1	BlockN_1	3	B	1	2	2
185005	322	0.7154827	6	b	0	BlockN_1	3	A	2	1	2
185005	323	0.8076111	6	n	1	BlockN_1	3	B	1	2	2
185005	324	0.6696319	6	n	1	BlockN_1	3	B	1	2	2
185005	326	2.7535394	6	n	0	BlockF_1	2	A	2	1	2
185005	330	0.7165991	6	b	1	BlockF_1	2	B	1	2	2
185005	331	1.1114731	6	b	1	BlockF_1	2	A	2	1	2
185005	332	0.8184039	6	n	0	BlockF_1	2	B	1	2	2
185005	334	0.8813138	6	b	1	BlockF_1	2	A	2	1	2
185005	336	0.6888367	6	n	0	BlockF_1	2	B	1	2	2
185005	339	0.9909922	6	b	1	BlockF_1	2	A	2	1	2
185005	341	0.6977284	6	n	0	BlockF_1	2	A	2	1	2
185005	343	0.8630819	6	b	1	BlockF_1	2	B	1	2	2
185005	344	0.9181844	6	b	1	BlockF_1	2	A	2	1	2
185005	349	0.8533058	6	b	1	BlockF_1	2	B	1	2	2
207436	2	1.169937	6	f	0	BlockFvN	1	A	2	1	2
207436	6	0.3631743	6	e	1	BlockFvN	1	B	1	2	2
207436	9	0.6839622	6	e	1	BlockFvN	1	B	1	2	2
207436	11	0.6740184	6	f	0	BlockFvN	1	B	1	2	2
207436	12	0.5432204	6	e	1	BlockFvN	1	B	1	2	2
207436	13	0.3357517	6	e	1	BlockFvN	1	B	1	2	2
207436	15	0.3876306	6	e	1	BlockFvN	1	A	2	1	2
207436	16	0.7315588	6	f	0	BlockFvN	1	A	2	1	2
207436	17	0.5504878	6	f	0	BlockFvN	1	A	2	1	2
207436	24	0.519506	6	f	0	BlockFvN	1	A	2	1	2
207436	51	1.2590953	6	e	1	BlockFvN	1	B	1	2	2
207436	55	0.6255881	6	f	0	BlockFvN	1	A	2	1	2
207436	56	0.6886346	6	e	1	BlockFvN	1	B	1	2	2
207436	58	1.5022166	6	e	1	BlockFvN	1	B	1	2	2
207436	59	0.6331577	6	f	0	BlockFvN	1	A	2	1	2
207436	60	0.727381	6	e	1	BlockFvN	1	B	1	2	2
207436	64	0.5744366	6	f	0	BlockFvN	1	A	2	1	2
207436	65	0.6070773	6	e	1	BlockFvN	1	A	2	1	2
207436	66	1.0532645	6	f	0	BlockFvN	1	A	2	1	2
207436	68	1.6754556	6	f	0	BlockFvN	1	A	2	1	2
207436	69	0.6747218	6	e	1	BlockFvN	1	B	1	2	2
207436	70	0.3824198	6	e	1	BlockFvN	1	B	1	2	2
207436	74	0.5803725	6	f	0	BlockFvN	1	A	2	1	2
207436	75	0.6616883	6	e	1	BlockFvN	1	B	1	2	2
207436	105	0.5861804	6	f	0	BlockFvN	1	A	2	1	2
207436	107	0.7878234	6	e	1	BlockFvN	1	B	1	2	2
207436	109	0.5802258	6	e	1	BlockFvN	1	B	1	2	2
207436	110	0.5337973	6	f	0	BlockFvN	1	A	2	1	2
207436	111	0.6157842	6	f	0	BlockFvN	1	A	2	1	2
207436	113	0.507897	6	e	1	BlockFvN	1	B	1	2	2
207436	114	0.5755962	6	f	0	BlockFvN	1	A	2	1	2
207436	115	0.5914687	6	e	1	BlockFvN	1	B	1	2	2
207436	119	1.3445901	6	e	1	BlockFvN	1	A	2	1	2
207436	120	0.8503213	6	e	1	BlockFvN	1	B	1	2	2
207436	122	0.5996302	6	f	0	BlockFvN	1	A	2	1	2
207436	123	1.1763224	6	e	1	BlockFvN	1	B	1	2	2
207436	124	1.4571421	6	e	1	BlockFvN	1	B	1	2	2
207436	151	0.6365855	6	f	0	BlockFvN	1	A	2	1	2
207436	153	0.6989694	6	e	1	BlockFvN	1	B	1	2	2
207436	154	0.5821021	6	e	1	BlockFvN	1	B	1	2	2
207436	155	0.6153047	6	f	0	BlockFvN	1	A	2	1	2
207436	157	0.613456	6	f	0	BlockFvN	1	B	1	2	2
207436	159	0.5516114	6	f	0	BlockFvN	1	A	2	1	2
207436	162	0.5568546	6	f	0	BlockFvN	1	A	2	1	2
207436	163	0.5574903	6	f	0	BlockFvN	1	A	2	1	2
207436	166	0.4525371	6	f	0	BlockFvN	1	B	1	2	2
207436	168	0.3008709	6	f	0	BlockFvN	1	A	2	1	2
207436	170	0.2912764	6	f	0	BlockFvN	1	A	2	1	2
207436	173	0.360506	6	e	1	BlockFvN	1	B	1	2	2
207436	175	0.5209097	6	e	1	BlockFvN	1	B	1	2	2
207436	2	1.4815105	6	n	0	BlockF_1	2	A	2	1	2
207436	4	1.8921604	6	n	0	BlockF_1	2	B	1	2	2
207436	5	0.6410092	6	n	0	BlockF_1	2	A	2	1	2
207436	6	1.3103869	6	b	1	BlockF_1	2	B	1	2	2
207436	9	1.0724276	6	b	1	BlockF_1	2	B	1	2	2
207436	11	1.5274241	6	b	1	BlockF_1	2	B	1	2	2
207436	12	0.7857329	6	b	1	BlockF_1	2	B	1	2	2
207436	13	0.7313271	6	b	1	BlockF_1	2	B	1	2	2
207436	15	0.7728481	6	n	0	BlockF_1	2	A	2	1	2
207436	16	0.7340387	6	n	0	BlockF_1	2	A	2	1	2
207436	17	0.5530614	6	n	0	BlockF_1	2	A	2	1	2
207436	19	0.5381609	6	n	0	BlockF_1	2	A	2	1	2
207436	24	1.6146787	6	n	0	BlockF_1	2	A	2	1	2
207436	26	1.2904578	6	b	0	BlockN_1	3	A	2	1	2
207436	27	1.10265	6	n	1	BlockN_1	3	B	1	2	2
207436	28	1.228814	6	n	1	BlockN_1	3	B	1	2	2
207436	29	0.7073629	6	b	0	BlockN_1	3	A	2	1	2
207436	30	2.030439	6	n	1	BlockN_1	3	B	1	2	2
207436	34	1.2073101	6	b	0	BlockN_1	3	A	2	1	2
207436	36	0.7988726	6	n	1	BlockN_1	3	A	2	1	2
207436	38	0.8491619	6	n	1	BlockN_1	3	B	1	2	2
207436	39	0.8078781	6	b	0	BlockN_1	3	B	1	2	2
207436	41	1.1243141	6	b	0	BlockN_1	3	B	1	2	2
207436	43	0.9391232	6	n	1	BlockN_1	3	B	1	2	2
207436	44	1.0716529	6	b	0	BlockN_1	3	A	2	1	2
207436	49	0.6185831	6	b	0	BlockN_1	3	A	2	1	2
207436	105	0.771982	6	n	0	BlockF_1	2	A	2	1	2
207436	107	0.6807353	6	n	0	BlockF_1	2	B	1	2	2
207436	109	0.7747693	6	b	1	BlockF_1	2	B	1	2	2
207436	110	0.7348704	6	n	0	BlockF_1	2	A	2	1	2
207436	111	3.2736374	6	n	0	BlockF_1	2	A	2	1	2
207436	113	0.5295829	6	b	1	BlockF_1	2	B	1	2	2
207436	114	0.5160008	6	n	0	BlockF_1	2	A	2	1	2
207436	115	0.504506	6	b	1	BlockF_1	2	B	1	2	2
207436	119	0.6482168	6	n	0	BlockF_1	2	A	2	1	2
207436	120	0.9982058	6	b	1	BlockF_1	2	B	1	2	2
207436	122	0.5663078	6	n	0	BlockF_1	2	A	2	1	2
207436	123	0.5666081	6	b	1	BlockF_1	2	B	1	2	2
207436	124	1.847963	6	b	1	BlockF_1	2	B	1	2	2
207436	126	1.1563214	6	b	0	BlockN_1	3	A	2	1	2
207436	127	0.7006143	6	n	1	BlockN_1	3	B	1	2	2
207436	130	0.9387231	6	n	1	BlockN_1	3	B	1	2	2
207436	131	0.7488986	6	b	0	BlockN_1	3	A	2	1	2
207436	132	0.5347618	6	b	0	BlockN_1	3	B	1	2	2
207436	134	0.5865671	6	b	0	BlockN_1	3	A	2	1	2
207436	136	1.0232785	6	n	1	BlockN_1	3	B	1	2	2
207436	139	0.7155216	6	b	0	BlockN_1	3	A	2	1	2
207436	141	0.5154951	6	b	0	BlockN_1	3	A	2	1	2
207436	143	0.6823863	6	n	1	BlockN_1	3	B	1	2	2
207436	144	0.6799939	6	b	0	BlockN_1	3	A	2	1	2
207436	146	0.7097023	6	n	1	BlockN_1	3	B	1	2	2
207436	149	0.7616641	6	n	1	BlockN_1	3	B	1	2	2
207436	202	1.0264198	6	n	0	BlockF_1	2	A	2	1	2
207436	206	0.6270773	6	b	1	BlockF_1	2	B	1	2	2
207436	209	0.5464906	6	b	1	BlockF_1	2	B	1	2	2
207436	211	0.5838105	6	n	0	BlockF_1	2	B	1	2	2
207436	212	0.5529152	6	b	1	BlockF_1	2	B	1	2	2
207436	213	0.5856608	6	b	1	BlockF_1	2	B	1	2	2
207436	215	0.5734362	6	b	1	BlockF_1	2	A	2	1	2
207436	216	0.829428	6	b	1	BlockF_1	2	A	2	1	2
207436	217	2.4201528	6	n	0	BlockF_1	2	A	2	1	2
207436	219	0.553744	6	n	0	BlockF_1	2	A	2	1	2
207436	224	1.8641026	6	n	0	BlockF_1	2	A	2	1	2
207436	226	0.6639901	6	n	1	BlockN_1	3	A	2	1	2
207436	227	0.7085582	6	b	0	BlockN_1	3	B	1	2	2
207436	228	2.4161426	6	n	1	BlockN_1	3	B	1	2	2
207436	229	1.2577465	6	b	0	BlockN_1	3	A	2	1	2
207436	230	0.8951651	6	b	0	BlockN_1	3	B	1	2	2
207436	234	0.7962143	6	n	1	BlockN_1	3	A	2	1	2
207436	236	0.6477893	6	b	0	BlockN_1	3	A	2	1	2
207436	238	0.4878991	6	n	1	BlockN_1	3	B	1	2	2
207436	239	0.7145422	6	b	0	BlockN_1	3	B	1	2	2
207436	241	0.4272749	6	n	1	BlockN_1	3	B	1	2	2
207436	243	1.2541001	6	n	1	BlockN_1	3	A	2	1	2
207436	244	0.6515428	6	n	1	BlockN_1	3	A	2	1	2
207436	249	0.5200245	6	n	1	BlockN_1	3	A	2	1	2
207436	305	0.5984831	6	n	0	BlockF_1	2	A	2	1	2
207436	307	0.528486	6	b	1	BlockF_1	2	B	1	2	2
207436	309	0.5348468	6	b	1	BlockF_1	2	B	1	2	2
207436	310	0.6164955	6	n	0	BlockF_1	2	A	2	1	2
207436	311	0.618176	6	n	0	BlockF_1	2	A	2	1	2
207436	313	0.5711717	6	b	1	BlockF_1	2	B	1	2	2
207436	314	0.4918792	6	n	0	BlockF_1	2	A	2	1	2
207436	315	0.734867	6	b	1	BlockF_1	2	B	1	2	2
207436	319	0.4989133	6	n	0	BlockF_1	2	A	2	1	2
207436	320	0.4711834	6	b	1	BlockF_1	2	B	1	2	2
207436	322	0.577673	6	b	1	BlockF_1	2	A	2	1	2
207436	323	0.5297793	6	b	1	BlockF_1	2	B	1	2	2
207436	324	0.6447626	6	b	1	BlockF_1	2	B	1	2	2
207436	326	0.5765487	6	n	1	BlockN_1	3	A	2	1	2
207436	330	1.4776196	6	n	1	BlockN_1	3	B	1	2	2
207436	331	0.8664275	6	b	0	BlockN_1	3	A	2	1	2
207436	332	0.6487193	6	n	1	BlockN_1	3	B	1	2	2
207436	334	0.5005703	6	b	0	BlockN_1	3	A	2	1	2
207436	336	1.2761375	6	n	1	BlockN_1	3	B	1	2	2
207436	339	0.5269812	6	b	0	BlockN_1	3	A	2	1	2
207436	341	0.4572486	6	b	0	BlockN_1	3	A	2	1	2
207436	343	0.5808139	6	n	1	BlockN_1	3	B	1	2	2
207436	344	0.4364993	6	n	1	BlockN_1	3	A	2	1	2
207436	349	0.5864748	6	n	1	BlockN_1	3	B	1	2	2
215147	2	1.9832736	6	f	0	BlockFvN	1	A	2	1	2
215147	6	0.9883932	6	e	1	BlockFvN	1	B	1	2	2
215147	9	0.6113949	6	e	1	BlockFvN	1	B	1	2	2
215147	11	0.5984982	6	e	1	BlockFvN	1	B	1	2	2
215147	12	0.4709265	6	e	1	BlockFvN	1	B	1	2	2
215147	13	0.6514539	6	e	1	BlockFvN	1	B	1	2	2
215147	15	0.6702134	6	f	0	BlockFvN	1	A	2	1	2
215147	16	0.4906647	6	f	0	BlockFvN	1	A	2	1	2
215147	17	0.5418447	6	f	0	BlockFvN	1	A	2	1	2
215147	24	0.5934976	6	f	0	BlockFvN	1	A	2	1	2
215147	51	0.7868868	6	e	1	BlockFvN	1	B	1	2	2
215147	55	1.3972103	6	f	0	BlockFvN	1	A	2	1	2
215147	56	0.7416483	6	e	1	BlockFvN	1	B	1	2	2
215147	58	1.0014891	6	e	1	BlockFvN	1	B	1	2	2
215147	59	0.7789802	6	f	0	BlockFvN	1	A	2	1	2
215147	60	0.5474424	6	f	0	BlockFvN	1	B	1	2	2
215147	64	0.5952289	6	e	1	BlockFvN	1	A	2	1	2
215147	65	0.9151432	6	f	0	BlockFvN	1	A	2	1	2
215147	66	0.8211945	6	f	0	BlockFvN	1	A	2	1	2
215147	68	1.1039186	6	f	0	BlockFvN	1	A	2	1	2
215147	69	0.4585293	6	e	1	BlockFvN	1	B	1	2	2
215147	70	0.4628547	6	e	1	BlockFvN	1	B	1	2	2
215147	74	0.6203174	6	e	1	BlockFvN	1	A	2	1	2
215147	75	0.5220299	6	e	1	BlockFvN	1	B	1	2	2
215147	105	0.9045775	6	e	1	BlockFvN	1	A	2	1	2
215147	107	0.618502	6	f	0	BlockFvN	1	B	1	2	2
215147	109	0.5193131	6	e	1	BlockFvN	1	B	1	2	2
215147	110	0.7958581	6	f	0	BlockFvN	1	A	2	1	2
215147	111	0.5312854	6	e	1	BlockFvN	1	A	2	1	2
215147	113	0.8715881	6	e	1	BlockFvN	1	B	1	2	2
215147	114	0.5886964	6	e	1	BlockFvN	1	A	2	1	2
215147	115	0.5875321	6	e	1	BlockFvN	1	B	1	2	2
215147	119	0.6451942	6	e	1	BlockFvN	1	A	2	1	2
215147	120	0.5635697	6	e	1	BlockFvN	1	B	1	2	2
215147	122	0.9211556	6	f	0	BlockFvN	1	A	2	1	2
215147	123	0.7319204	6	e	1	BlockFvN	1	B	1	2	2
215147	124	0.5202269	6	e	1	BlockFvN	1	B	1	2	2
215147	151	0.6559614	6	f	0	BlockFvN	1	A	2	1	2
215147	153	1.5155057	6	f	0	BlockFvN	1	B	1	2	2
215147	154	1.3187289	6	e	1	BlockFvN	1	B	1	2	2
215147	155	0.7952258	6	e	1	BlockFvN	1	A	2	1	2
215147	157	2.5650037	6	f	0	BlockFvN	1	B	1	2	2
215147	159	0.772598	6	e	1	BlockFvN	1	A	2	1	2
215147	162	0.7374634	6	e	1	BlockFvN	1	A	2	1	2
215147	163	0.9083564	6	e	1	BlockFvN	1	A	2	1	2
215147	166	0.7456485	6	e	1	BlockFvN	1	B	1	2	2
215147	168	0.6337234	6	e	1	BlockFvN	1	A	2	1	2
215147	170	0.7065316	6	f	0	BlockFvN	1	A	2	1	2
215147	173	0.8789557	6	e	1	BlockFvN	1	B	1	2	2
215147	175	0.5781546	6	e	1	BlockFvN	1	B	1	2	2
215147	2	0.646682	6	b	0	BlockN_1	3	A	2	1	2
215147	4	0.8720389	6	b	0	BlockN_1	3	B	1	2	2
215147	5	0.5248074	6	b	0	BlockN_1	3	A	2	1	2
215147	6	0.4634827	6	n	1	BlockN_1	3	B	1	2	2
215147	9	0.5823613	6	n	1	BlockN_1	3	B	1	2	2
215147	11	0.8716903	6	n	1	BlockN_1	3	B	1	2	2
215147	12	0.508978	6	n	1	BlockN_1	3	B	1	2	2
215147	13	0.4797115	6	n	1	BlockN_1	3	B	1	2	2
215147	15	0.7812477	6	b	0	BlockN_1	3	A	2	1	2
215147	16	0.6129279	6	n	1	BlockN_1	3	A	2	1	2
215147	17	0.7561121	6	n	1	BlockN_1	3	A	2	1	2
215147	19	0.693372	6	b	0	BlockN_1	3	A	2	1	2
215147	24	0.6073228	6	b	0	BlockN_1	3	A	2	1	2
215147	26	0.8044074	6	n	0	BlockF_1	2	A	2	1	2
215147	27	0.6377504	6	b	1	BlockF_1	2	B	1	2	2
215147	28	0.6992069	6	b	1	BlockF_1	2	B	1	2	2
215147	29	0.7918037	6	n	0	BlockF_1	2	A	2	1	2
215147	30	2.4475204	6	b	1	BlockF_1	2	B	1	2	2
215147	34	0.7765942	6	n	0	BlockF_1	2	A	2	1	2
215147	36	1.2087387	6	b	1	BlockF_1	2	A	2	1	2
215147	38	0.71646	6	b	1	BlockF_1	2	B	1	2	2
215147	39	0.7607255	6	b	1	BlockF_1	2	B	1	2	2
215147	41	0.5746258	6	b	1	BlockF_1	2	B	1	2	2
215147	43	0.7785039	6	b	1	BlockF_1	2	B	1	2	2
215147	44	0.6265327	6	b	1	BlockF_1	2	A	2	1	2
215147	49	0.5788995	6	b	1	BlockF_1	2	A	2	1	2
215147	105	0.8985189	6	n	1	BlockN_1	3	A	2	1	2
215147	107	1.2556117	6	n	1	BlockN_1	3	B	1	2	2
215147	109	0.5030866	6	n	1	BlockN_1	3	B	1	2	2
215147	110	0.730815	6	b	0	BlockN_1	3	A	2	1	2
215147	111	1.0766099	6	n	1	BlockN_1	3	A	2	1	2
215147	113	1.2745584	6	n	1	BlockN_1	3	B	1	2	2
215147	114	1.4385542	6	n	1	BlockN_1	3	A	2	1	2
215147	115	1.1987334	6	b	0	BlockN_1	3	B	1	2	2
215147	119	0.7436388	6	b	0	BlockN_1	3	A	2	1	2
215147	120	0.7856506	6	n	1	BlockN_1	3	B	1	2	2
215147	122	0.6825907	6	b	0	BlockN_1	3	A	2	1	2
215147	123	0.7591609	6	b	0	BlockN_1	3	B	1	2	2
215147	124	0.7529606	6	n	1	BlockN_1	3	B	1	2	2
215147	126	3.4305037	6	b	1	BlockF_1	2	A	2	1	2
215147	127	0.4882087	6	b	1	BlockF_1	2	B	1	2	2
215147	130	1.3407195	6	n	0	BlockF_1	2	B	1	2	2
215147	131	0.6224819	6	n	0	BlockF_1	2	A	2	1	2
215147	132	0.6381451	6	b	1	BlockF_1	2	B	1	2	2
215147	134	0.672506	6	n	0	BlockF_1	2	A	2	1	2
215147	136	0.6013991	6	b	1	BlockF_1	2	B	1	2	2
215147	139	5.504428	6	n	0	BlockF_1	2	A	2	1	2
215147	141	0.577354	6	n	0	BlockF_1	2	A	2	1	2
215147	143	1.3400354	6	b	1	BlockF_1	2	B	1	2	2
215147	144	0.8781904	6	b	1	BlockF_1	2	A	2	1	2
215147	146	1.0246505	6	b	1	BlockF_1	2	B	1	2	2
215147	149	0.5503412	6	n	0	BlockF_1	2	B	1	2	2
215147	202	0.5741201	6	b	0	BlockN_1	3	A	2	1	2
215147	206	1.5511396	6	n	1	BlockN_1	3	B	1	2	2
215147	209	1.4485047	6	n	1	BlockN_1	3	B	1	2	2
215147	211	0.6541923	6	b	0	BlockN_1	3	B	1	2	2
215147	212	1.2435528	6	n	1	BlockN_1	3	B	1	2	2
215147	213	2.3234344	6	n	1	BlockN_1	3	B	1	2	2
215147	215	0.8288403	6	n	1	BlockN_1	3	A	2	1	2
215147	216	0.6424078	6	b	0	BlockN_1	3	A	2	1	2
215147	217	0.7374912	6	b	0	BlockN_1	3	A	2	1	2
215147	219	2.3407607	6	b	0	BlockN_1	3	A	2	1	2
215147	224	0.5777737	6	b	0	BlockN_1	3	A	2	1	2
215147	226	0.8225399	6	b	1	BlockF_1	2	A	2	1	2
215147	227	0.8612133	6	b	1	BlockF_1	2	B	1	2	2
215147	228	0.6106334	6	b	1	BlockF_1	2	B	1	2	2
215147	229	0.7072011	6	n	0	BlockF_1	2	A	2	1	2
215147	230	0.622299	6	n	0	BlockF_1	2	B	1	2	2
215147	234	0.8015278	6	n	0	BlockF_1	2	A	2	1	2
215147	236	0.6883822	6	n	0	BlockF_1	2	A	2	1	2
215147	238	0.4423794	6	b	1	BlockF_1	2	B	1	2	2
215147	239	0.54543	6	b	1	BlockF_1	2	B	1	2	2
215147	241	0.4557537	6	b	1	BlockF_1	2	B	1	2	2
215147	243	0.7634221	6	n	0	BlockF_1	2	A	2	1	2
215147	244	0.5169338	6	n	0	BlockF_1	2	A	2	1	2
215147	249	0.5929995	6	n	0	BlockF_1	2	A	2	1	2
215147	305	0.7623699	6	n	1	BlockN_1	3	A	2	1	2
215147	307	1.554243	6	n	1	BlockN_1	3	B	1	2	2
215147	309	1.1226349	6	b	0	BlockN_1	3	B	1	2	2
215147	310	1.1487961	6	b	0	BlockN_1	3	A	2	1	2
215147	311	1.4645206	6	b	0	BlockN_1	3	A	2	1	2
215147	313	1.1358311	6	n	1	BlockN_1	3	B	1	2	2
215147	314	0.8437606	6	n	1	BlockN_1	3	A	2	1	2
215147	315	1.3449065	6	n	1	BlockN_1	3	B	1	2	2
215147	319	0.7565309	6	n	1	BlockN_1	3	A	2	1	2
215147	320	0.8302678	6	n	1	BlockN_1	3	B	1	2	2
215147	322	2.3934794	6	n	1	BlockN_1	3	A	2	1	2
215147	323	0.5460048	6	n	1	BlockN_1	3	B	1	2	2
215147	324	0.5648313	6	n	1	BlockN_1	3	B	1	2	2
215147	326	0.7985738	6	n	0	BlockF_1	2	A	2	1	2
215147	330	0.8157289	6	b	1	BlockF_1	2	B	1	2	2
215147	331	0.8554302	6	n	0	BlockF_1	2	A	2	1	2
215147	332	0.8944797	6	n	0	BlockF_1	2	B	1	2	2
215147	334	0.796288	6	n	0	BlockF_1	2	A	2	1	2
215147	336	0.6702264	6	b	1	BlockF_1	2	B	1	2	2
215147	339	0.8652338	6	n	0	BlockF_1	2	A	2	1	2
215147	341	0.7029713	6	n	0	BlockF_1	2	A	2	1	2
215147	343	0.6156156	6	b	1	BlockF_1	2	B	1	2	2
215147	344	1.2880644	6	n	0	BlockF_1	2	A	2	1	2
215147	349	0.6131886	6	n	0	BlockF_1	2	B	1	2	2
243315	2	0.9282777	6	f	0	BlockFvN	1	A	2	1	2
243315	6	0.6968143	6	e	1	BlockFvN	1	B	1	2	2
243315	9	0.789788	6	e	1	BlockFvN	1	B	1	2	2
243315	11	0.8381799	6	e	1	BlockFvN	1	B	1	2	2
243315	12	0.8919658	6	e	1	BlockFvN	1	B	1	2	2
243315	13	0.8487278	6	e	1	BlockFvN	1	B	1	2	2
243315	15	0.7793142	6	e	1	BlockFvN	1	A	2	1	2
243315	16	0.9165338	6	e	1	BlockFvN	1	A	2	1	2
243315	17	1.0473808	6	e	1	BlockFvN	1	A	2	1	2
243315	24	1.29388	6	f	0	BlockFvN	1	A	2	1	2
243315	51	0.7156925	6	e	1	BlockFvN	1	B	1	2	2
243315	55	0.7208146	6	e	1	BlockFvN	1	A	2	1	2
243315	56	0.7014044	6	e	1	BlockFvN	1	B	1	2	2
243315	58	0.834333	6	e	1	BlockFvN	1	B	1	2	2
243315	59	0.7117843	6	e	1	BlockFvN	1	A	2	1	2
243315	60	0.8055437	6	e	1	BlockFvN	1	B	1	2	2
243315	64	0.5668189	6	e	1	BlockFvN	1	A	2	1	2
243315	65	0.8236776	6	e	1	BlockFvN	1	A	2	1	2
243315	66	0.7035242	6	e	1	BlockFvN	1	A	2	1	2
243315	68	0.8703272	6	e	1	BlockFvN	1	A	2	1	2
243315	69	0.8273506	6	e	1	BlockFvN	1	B	1	2	2
243315	70	0.8176969	6	e	1	BlockFvN	1	B	1	2	2
243315	74	1.1179167	6	f	0	BlockFvN	1	A	2	1	2
243315	75	0.7928087	6	e	1	BlockFvN	1	B	1	2	2
243315	105	0.6795498	6	f	0	BlockFvN	1	A	2	1	2
243315	107	0.6361252	6	e	1	BlockFvN	1	B	1	2	2
243315	109	0.7400331	6	e	1	BlockFvN	1	B	1	2	2
243315	110	0.8146804	6	f	0	BlockFvN	1	A	2	1	2
243315	111	0.5502597	6	e	1	BlockFvN	1	A	2	1	2
243315	113	1.0257486	6	f	0	BlockFvN	1	B	1	2	2
243315	114	0.7051021	6	e	1	BlockFvN	1	A	2	1	2
243315	115	0.7006956	6	e	1	BlockFvN	1	B	1	2	2
243315	119	0.8504789	6	e	1	BlockFvN	1	A	2	1	2
243315	120	0.696636	6	e	1	BlockFvN	1	B	1	2	2
243315	122	0.6989761	6	e	1	BlockFvN	1	A	2	1	2
243315	123	0.6956195	6	e	1	BlockFvN	1	B	1	2	2
243315	124	0.7867657	6	e	1	BlockFvN	1	B	1	2	2
243315	151	0.5041563	6	e	1	BlockFvN	1	A	2	1	2
243315	153	0.5210306	6	e	1	BlockFvN	1	B	1	2	2
243315	154	0.6220472	6	f	0	BlockFvN	1	B	1	2	2
243315	155	0.7955664	6	f	0	BlockFvN	1	A	2	1	2
243315	157	0.7683755	6	e	1	BlockFvN	1	B	1	2	2
243315	159	0.9987044	6	e	1	BlockFvN	1	A	2	1	2
243315	162	0.9841406	6	e	1	BlockFvN	1	A	2	1	2
243315	163	0.7134435	6	e	1	BlockFvN	1	A	2	1	2
243315	166	0.7879536	6	e	1	BlockFvN	1	B	1	2	2
243315	168	0.6152116	6	e	1	BlockFvN	1	A	2	1	2
243315	170	0.6728707	6	f	0	BlockFvN	1	A	2	1	2
243315	173	0.574688	6	e	1	BlockFvN	1	B	1	2	2
243315	175	0.5049337	6	e	1	BlockFvN	1	B	1	2	2
243315	2	0.7963375	6	b	1	BlockF_1	2	A	2	1	2
243315	4	0.9265487	6	b	1	BlockF_1	2	B	1	2	2
243315	5	1.138516	6	b	1	BlockF_1	2	A	2	1	2
243315	6	0.5078519	6	b	1	BlockF_1	2	B	1	2	2
243315	9	1.5249301	6	b	1	BlockF_1	2	B	1	2	2
243315	11	0.5967074	6	b	1	BlockF_1	2	B	1	2	2
243315	12	0.5985905	6	b	1	BlockF_1	2	B	1	2	2
243315	13	0.4693259	6	b	1	BlockF_1	2	B	1	2	2
243315	15	0.5759458	6	b	1	BlockF_1	2	A	2	1	2
243315	16	0.6232546	6	b	1	BlockF_1	2	A	2	1	2
243315	17	0.558648	6	b	1	BlockF_1	2	A	2	1	2
243315	19	1.0459114	6	n	0	BlockF_1	2	A	2	1	2
243315	24	0.6836013	6	n	0	BlockF_1	2	A	2	1	2
243315	26	0.6832055	6	n	1	BlockN_1	3	A	2	1	2
243315	27	0.6153263	6	n	1	BlockN_1	3	B	1	2	2
243315	28	0.5500442	6	n	1	BlockN_1	3	B	1	2	2
243315	29	1.0003955	6	n	1	BlockN_1	3	A	2	1	2
243315	30	1.2229162	6	n	1	BlockN_1	3	B	1	2	2
243315	34	0.6340936	6	b	0	BlockN_1	3	A	2	1	2
243315	36	1.1393051	6	n	1	BlockN_1	3	A	2	1	2
243315	38	0.6154263	6	n	1	BlockN_1	3	B	1	2	2
243315	39	0.9650674	6	n	1	BlockN_1	3	B	1	2	2
243315	41	0.5544274	6	n	1	BlockN_1	3	B	1	2	2
243315	43	0.8826533	6	n	1	BlockN_1	3	B	1	2	2
243315	44	0.7916689	6	n	1	BlockN_1	3	A	2	1	2
243315	49	0.6632299	6	b	0	BlockN_1	3	A	2	1	2
243315	105	0.6917258	6	n	0	BlockF_1	2	A	2	1	2
243315	107	1.4585693	6	b	1	BlockF_1	2	B	1	2	2
243315	109	0.5917082	6	b	1	BlockF_1	2	B	1	2	2
243315	110	1.1523367	6	n	0	BlockF_1	2	A	2	1	2
243315	111	0.8092541	6	n	0	BlockF_1	2	A	2	1	2
243315	113	0.5591504	6	b	1	BlockF_1	2	B	1	2	2
243315	114	1.0734207	6	n	0	BlockF_1	2	A	2	1	2
243315	115	0.6062924	6	b	1	BlockF_1	2	B	1	2	2
243315	119	0.8265962	6	n	0	BlockF_1	2	A	2	1	2
243315	120	0.7229864	6	n	0	BlockF_1	2	B	1	2	2
243315	122	0.4467508	6	b	1	BlockF_1	2	A	2	1	2
243315	123	0.5810196	6	b	1	BlockF_1	2	B	1	2	2
243315	124	0.5490738	6	b	1	BlockF_1	2	B	1	2	2
243315	126	1.0038202	6	b	0	BlockN_1	3	A	2	1	2
243315	127	0.7468309	6	n	1	BlockN_1	3	B	1	2	2
243315	130	0.5111771	6	n	1	BlockN_1	3	B	1	2	2
243315	131	0.7878845	6	b	0	BlockN_1	3	A	2	1	2
243315	132	0.6989426	6	b	0	BlockN_1	3	B	1	2	2
243315	134	0.6897052	6	b	0	BlockN_1	3	A	2	1	2
243315	136	0.3679681	6	n	1	BlockN_1	3	B	1	2	2
243315	139	0.8626669	6	b	0	BlockN_1	3	A	2	1	2
243315	141	0.6415103	6	b	0	BlockN_1	3	A	2	1	2
243315	143	1.0327126	6	n	1	BlockN_1	3	B	1	2	2
243315	144	1.2080769	6	n	1	BlockN_1	3	A	2	1	2
243315	146	1.6913415	6	b	0	BlockN_1	3	B	1	2	2
243315	149	0.6952095	6	n	1	BlockN_1	3	B	1	2	2
243315	202	0.6526176	6	n	0	BlockF_1	2	A	2	1	2
243315	206	0.5078408	6	b	1	BlockF_1	2	B	1	2	2
243315	209	0.5412832	6	b	1	BlockF_1	2	B	1	2	2
243315	211	0.5620011	6	b	1	BlockF_1	2	B	1	2	2
243315	212	0.4847846	6	b	1	BlockF_1	2	B	1	2	2
243315	213	0.4237308	6	b	1	BlockF_1	2	B	1	2	2
243315	215	0.6295959	6	n	0	BlockF_1	2	A	2	1	2
243315	216	0.7409753	6	n	0	BlockF_1	2	A	2	1	2
243315	217	0.6727238	6	n	0	BlockF_1	2	A	2	1	2
243315	219	0.6055337	6	n	0	BlockF_1	2	A	2	1	2
243315	224	0.8695673	6	n	0	BlockF_1	2	A	2	1	2
243315	226	0.833728	6	n	1	BlockN_1	3	A	2	1	2
243315	227	0.6957782	6	n	1	BlockN_1	3	B	1	2	2
243315	228	0.5160026	6	b	0	BlockN_1	3	B	1	2	2
243315	229	1.0652676	6	b	0	BlockN_1	3	A	2	1	2
243315	230	0.6451153	6	n	1	BlockN_1	3	B	1	2	2
243315	234	1.0937728	6	n	1	BlockN_1	3	A	2	1	2
243315	236	0.7052145	6	b	0	BlockN_1	3	A	2	1	2
243315	238	0.8605748	6	n	1	BlockN_1	3	B	1	2	2
243315	239	0.833324	6	n	1	BlockN_1	3	B	1	2	2
243315	241	0.7273575	6	n	1	BlockN_1	3	B	1	2	2
243315	243	0.6743916	6	b	0	BlockN_1	3	A	2	1	2
243315	244	0.5902539	6	b	0	BlockN_1	3	A	2	1	2
243315	249	0.6822803	6	b	0	BlockN_1	3	A	2	1	2
243315	305	0.6593149	6	n	0	BlockF_1	2	A	2	1	2
243315	307	1.0386103	6	b	1	BlockF_1	2	B	1	2	2
243315	309	0.6022928	6	b	1	BlockF_1	2	B	1	2	2
243315	310	0.8416228	6	n	0	BlockF_1	2	A	2	1	2
243315	311	0.7030377	6	n	0	BlockF_1	2	A	2	1	2
243315	313	0.4843149	6	b	1	BlockF_1	2	B	1	2	2
243315	314	1.1773733	6	b	1	BlockF_1	2	A	2	1	2
243315	315	0.4342229	6	b	1	BlockF_1	2	B	1	2	2
243315	319	1.4637019	6	b	1	BlockF_1	2	A	2	1	2
243315	320	0.7575143	6	b	1	BlockF_1	2	B	1	2	2
243315	322	0.7345051	6	b	1	BlockF_1	2	A	2	1	2
243315	323	0.6169891	6	b	1	BlockF_1	2	B	1	2	2
243315	324	0.5365886	6	b	1	BlockF_1	2	B	1	2	2
243315	326	0.5209918	6	b	0	BlockN_1	3	A	2	1	2
243315	330	0.550612	6	n	1	BlockN_1	3	B	1	2	2
243315	331	0.6490919	6	b	0	BlockN_1	3	A	2	1	2
243315	332	0.7254269	6	n	1	BlockN_1	3	B	1	2	2
243315	334	0.4532638	6	n	1	BlockN_1	3	A	2	1	2
243315	336	0.4660192	6	n	1	BlockN_1	3	B	1	2	2
243315	339	0.5246702	6	b	0	BlockN_1	3	A	2	1	2
243315	341	0.5850874	6	b	0	BlockN_1	3	A	2	1	2
243315	343	0.5883635	6	b	0	BlockN_1	3	B	1	2	2
243315	344	0.7962013	6	b	0	BlockN_1	3	A	2	1	2
243315	349	0.7859134	6	n	1	BlockN_1	3	B	1	2	2
246835	2	1.0121244	6	e	1	BlockFvN	1	A	2	1	2
246835	6	0.6295838	6	e	1	BlockFvN	1	B	1	2	2
246835	9	0.6029491	6	e	1	BlockFvN	1	B	1	2	2
246835	11	1.0257039	6	e	1	BlockFvN	1	B	1	2	2
246835	12	0.6402328	6	e	1	BlockFvN	1	B	1	2	2
246835	13	0.7033488	6	f	0	BlockFvN	1	B	1	2	2
246835	15	0.7447568	6	f	0	BlockFvN	1	A	2	1	2
246835	16	0.8970887	6	e	1	BlockFvN	1	A	2	1	2
246835	17	0.6305547	6	f	0	BlockFvN	1	A	2	1	2
246835	24	0.6496421	6	f	0	BlockFvN	1	A	2	1	2
246835	51	0.616215	6	e	1	BlockFvN	1	B	1	2	2
246835	55	0.5651654	6	e	1	BlockFvN	1	A	2	1	2
246835	56	0.4238693	6	e	1	BlockFvN	1	B	1	2	2
246835	58	0.5933208	6	e	1	BlockFvN	1	B	1	2	2
246835	59	0.5458339	6	e	1	BlockFvN	1	A	2	1	2
246835	60	0.4521027	6	e	1	BlockFvN	1	B	1	2	2
246835	64	0.7749713	6	f	0	BlockFvN	1	A	2	1	2
246835	65	0.5922205	6	f	0	BlockFvN	1	A	2	1	2
246835	66	0.9127735	6	f	0	BlockFvN	1	A	2	1	2
246835	68	0.6171705	6	f	0	BlockFvN	1	A	2	1	2
246835	69	0.5358009	6	e	1	BlockFvN	1	B	1	2	2
246835	70	0.634214	6	e	1	BlockFvN	1	B	1	2	2
246835	74	1.1631005	6	e	1	BlockFvN	1	A	2	1	2
246835	75	1.3985296	6	f	0	BlockFvN	1	B	1	2	2
246835	105	0.6062796	6	e	1	BlockFvN	1	A	2	1	2
246835	107	0.8617481	6	e	1	BlockFvN	1	B	1	2	2
246835	109	0.5803134	6	e	1	BlockFvN	1	B	1	2	2
246835	110	0.5656909	6	f	0	BlockFvN	1	A	2	1	2
246835	111	0.6620862	6	e	1	BlockFvN	1	A	2	1	2
246835	113	0.434935	6	e	1	BlockFvN	1	B	1	2	2
246835	114	1.0649764	6	e	1	BlockFvN	1	A	2	1	2
246835	115	0.7432227	6	e	1	BlockFvN	1	B	1	2	2
246835	119	1.929499	6	e	1	BlockFvN	1	A	2	1	2
246835	120	0.6611981	6	e	1	BlockFvN	1	B	1	2	2
246835	122	0.7542158	6	f	0	BlockFvN	1	A	2	1	2
246835	123	0.6352395	6	e	1	BlockFvN	1	B	1	2	2
246835	124	0.6171768	6	e	1	BlockFvN	1	B	1	2	2
246835	151	0.7297092	6	f	0	BlockFvN	1	A	2	1	2
246835	153	0.5464959	6	e	1	BlockFvN	1	B	1	2	2
246835	154	0.4372725	6	e	1	BlockFvN	1	B	1	2	2
246835	155	0.6037038	6	f	0	BlockFvN	1	A	2	1	2
246835	157	0.6540608	6	e	1	BlockFvN	1	B	1	2	2
246835	159	0.3994026	6	e	1	BlockFvN	1	A	2	1	2
246835	162	0.8313952	6	e	1	BlockFvN	1	A	2	1	2
246835	163	0.7581358	6	e	1	BlockFvN	1	A	2	1	2
246835	166	0.5030588	6	e	1	BlockFvN	1	B	1	2	2
246835	168	0.4937659	6	e	1	BlockFvN	1	A	2	1	2
246835	170	0.61528	6	f	0	BlockFvN	1	A	2	1	2
246835	173	0.8253754	6	e	1	BlockFvN	1	B	1	2	2
246835	175	0.503554	6	e	1	BlockFvN	1	B	1	2	2
246835	2	1.1388922	6	b	1	BlockF_1	2	A	2	1	2
246835	4	0.8284272	6	b	1	BlockF_1	2	B	1	2	2
246835	5	0.8985534	6	b	1	BlockF_1	2	A	2	1	2
246835	6	0.7119819	6	b	1	BlockF_1	2	B	1	2	2
246835	9	0.4540363	6	b	1	BlockF_1	2	B	1	2	2
246835	11	0.5455464	6	b	1	BlockF_1	2	B	1	2	2
246835	12	0.4675652	6	b	1	BlockF_1	2	B	1	2	2
246835	13	0.8391488	6	n	0	BlockF_1	2	B	1	2	2
246835	15	0.7071183	6	n	0	BlockF_1	2	A	2	1	2
246835	16	0.4951913	6	b	1	BlockF_1	2	A	2	1	2
246835	17	0.9474398	6	b	1	BlockF_1	2	A	2	1	2
246835	19	0.5175647	6	n	0	BlockF_1	2	A	2	1	2
246835	24	0.5424162	6	n	0	BlockF_1	2	A	2	1	2
246835	26	1.9565057	6	n	1	BlockN_1	3	A	2	1	2
246835	27	1.0872645	6	n	1	BlockN_1	3	B	1	2	2
246835	28	0.4768738	6	n	1	BlockN_1	3	B	1	2	2
246835	29	0.5139863	6	n	1	BlockN_1	3	A	2	1	2
246835	30	0.5332943	6	n	1	BlockN_1	3	B	1	2	2
246835	34	0.6997918	6	b	0	BlockN_1	3	A	2	1	2
246835	36	0.8420908	6	n	1	BlockN_1	3	A	2	1	2
246835	38	0.5268037	6	n	1	BlockN_1	3	B	1	2	2
246835	39	0.5468446	6	n	1	BlockN_1	3	B	1	2	2
246835	41	0.4572338	6	n	1	BlockN_1	3	B	1	2	2
246835	43	0.626776	6	n	1	BlockN_1	3	B	1	2	2
246835	44	1.6497069	6	n	1	BlockN_1	3	A	2	1	2
246835	49	0.8946769	6	b	0	BlockN_1	3	A	2	1	2
246835	105	0.4464435	6	b	1	BlockF_1	2	A	2	1	2
246835	107	0.6314851	6	b	1	BlockF_1	2	B	1	2	2
246835	109	0.5487835	6	b	1	BlockF_1	2	B	1	2	2
246835	110	0.58241	6	n	0	BlockF_1	2	A	2	1	2
246835	111	0.4885542	6	b	1	BlockF_1	2	A	2	1	2
246835	113	0.4566704	6	b	1	BlockF_1	2	B	1	2	2
246835	114	0.6535932	6	b	1	BlockF_1	2	A	2	1	2
246835	115	0.4894674	6	b	1	BlockF_1	2	B	1	2	2
246835	119	0.7431939	6	b	1	BlockF_1	2	A	2	1	2
246835	120	0.5609003	6	b	1	BlockF_1	2	B	1	2	2
246835	122	0.6603085	6	n	0	BlockF_1	2	A	2	1	2
246835	123	0.6270836	6	b	1	BlockF_1	2	B	1	2	2
246835	124	0.7206825	6	b	1	BlockF_1	2	B	1	2	2
246835	126	1.1283769	6	b	0	BlockN_1	3	A	2	1	2
246835	127	0.6278091	6	n	1	BlockN_1	3	B	1	2	2
246835	130	0.5188986	6	n	1	BlockN_1	3	B	1	2	2
246835	131	0.4577509	6	n	1	BlockN_1	3	A	2	1	2
246835	132	0.5109306	6	b	0	BlockN_1	3	B	1	2	2
246835	134	0.4999914	6	n	1	BlockN_1	3	A	2	1	2
246835	136	0.5114721	6	n	1	BlockN_1	3	B	1	2	2
246835	139	1.0332418	6	n	1	BlockN_1	3	A	2	1	2
246835	141	0.5698668	6	b	0	BlockN_1	3	A	2	1	2
246835	143	0.6543561	6	n	1	BlockN_1	3	B	1	2	2
246835	144	0.4920867	6	n	1	BlockN_1	3	A	2	1	2
246835	146	0.9815982	6	n	1	BlockN_1	3	B	1	2	2
246835	149	0.6985705	6	n	1	BlockN_1	3	B	1	2	2
246835	202	0.5748629	6	b	1	BlockF_1	2	A	2	1	2
246835	206	0.4103885	6	b	1	BlockF_1	2	B	1	2	2
246835	209	0.5897365	6	b	1	BlockF_1	2	B	1	2	2
246835	211	0.6748875	6	n	0	BlockF_1	2	B	1	2	2
246835	212	0.4458623	6	b	1	BlockF_1	2	B	1	2	2
246835	213	0.5172186	6	b	1	BlockF_1	2	B	1	2	2
246835	215	0.6518377	6	b	1	BlockF_1	2	A	2	1	2
246835	216	0.457258	6	b	1	BlockF_1	2	A	2	1	2
246835	217	0.5438904	6	b	1	BlockF_1	2	A	2	1	2
246835	219	0.7431014	6	n	0	BlockF_1	2	A	2	1	2
246835	224	0.4232062	6	b	1	BlockF_1	2	A	2	1	2
246835	226	0.8864741	6	n	1	BlockN_1	3	A	2	1	2
246835	227	0.4586596	6	n	1	BlockN_1	3	B	1	2	2
246835	228	0.415922	6	n	1	BlockN_1	3	B	1	2	2
246835	229	0.4085623	6	n	1	BlockN_1	3	A	2	1	2
246835	230	0.3178653	6	n	1	BlockN_1	3	B	1	2	2
246835	234	0.6047416	6	b	0	BlockN_1	3	A	2	1	2
246835	236	0.5403047	6	n	1	BlockN_1	3	A	2	1	2
246835	238	0.6371342	6	n	1	BlockN_1	3	B	1	2	2
246835	239	0.5383656	6	n	1	BlockN_1	3	B	1	2	2
246835	241	0.5268382	6	n	1	BlockN_1	3	B	1	2	2
246835	243	0.6629922	6	n	1	BlockN_1	3	A	2	1	2
246835	244	0.5635526	6	n	1	BlockN_1	3	A	2	1	2
246835	249	1.2611358	6	b	0	BlockN_1	3	A	2	1	2
246835	305	0.6319354	6	b	1	BlockF_1	2	A	2	1	2
246835	307	0.5809325	6	n	0	BlockF_1	2	B	1	2	2
246835	309	0.709989	6	b	1	BlockF_1	2	B	1	2	2
246835	310	1.6005498	6	n	0	BlockF_1	2	A	2	1	2
246835	311	0.4886355	6	b	1	BlockF_1	2	A	2	1	2
246835	313	0.8092543	6	b	1	BlockF_1	2	B	1	2	2
246835	314	0.5605484	6	b	1	BlockF_1	2	A	2	1	2
246835	315	0.8490648	6	b	1	BlockF_1	2	B	1	2	2
246835	319	0.8788688	6	b	1	BlockF_1	2	A	2	1	2
246835	320	0.5322366	6	b	1	BlockF_1	2	B	1	2	2
246835	322	0.6686383	6	n	0	BlockF_1	2	A	2	1	2
246835	323	0.6019652	6	b	1	BlockF_1	2	B	1	2	2
246835	324	0.793875	6	b	1	BlockF_1	2	B	1	2	2
246835	326	0.8986548	6	b	0	BlockN_1	3	A	2	1	2
246835	330	0.5100411	6	n	1	BlockN_1	3	B	1	2	2
246835	331	0.594077	6	n	1	BlockN_1	3	A	2	1	2
246835	332	0.9154591	6	n	1	BlockN_1	3	B	1	2	2
246835	334	0.4548695	6	n	1	BlockN_1	3	A	2	1	2
246835	336	3.8396292	6	n	1	BlockN_1	3	B	1	2	2
246835	339	1.0950376	6	n	1	BlockN_1	3	A	2	1	2
246835	341	2.4389842	6	n	1	BlockN_1	3	A	2	1	2
246835	343	0.5840598	6	n	1	BlockN_1	3	B	1	2	2
246835	344	0.4249146	6	n	1	BlockN_1	3	A	2	1	2
246835	349	0.6627049	6	n	1	BlockN_1	3	B	1	2	2
252899	2	1.1383977	6	f	0	BlockFvN	1	A	2	1	2
252899	6	0.624563	6	e	1	BlockFvN	1	B	1	2	2
252899	9	0.815572	6	e	1	BlockFvN	1	B	1	2	2
252899	11	0.7669845	6	e	1	BlockFvN	1	B	1	2	2
252899	12	1.5442987	6	e	1	BlockFvN	1	B	1	2	2
252899	13	1.0111031	6	e	1	BlockFvN	1	B	1	2	2
252899	15	0.7307354	6	e	1	BlockFvN	1	A	2	1	2
252899	16	0.9333321	6	e	1	BlockFvN	1	A	2	1	2
252899	17	0.7113292	6	e	1	BlockFvN	1	A	2	1	2
252899	24	0.7484507	6	f	0	BlockFvN	1	A	2	1	2
252899	51	0.5272893	6	e	1	BlockFvN	1	B	1	2	2
252899	55	0.6722597	6	e	1	BlockFvN	1	A	2	1	2
252899	56	1.1013016	6	e	1	BlockFvN	1	B	1	2	2
252899	58	0.6704736	6	e	1	BlockFvN	1	B	1	2	2
252899	59	3.017257	6	e	1	BlockFvN	1	A	2	1	2
252899	60	1.2113685	6	f	0	BlockFvN	1	B	1	2	2
252899	64	0.9336374	6	e	1	BlockFvN	1	A	2	1	2
252899	65	1.1919026	6	f	0	BlockFvN	1	A	2	1	2
252899	66	1.0884191	6	e	1	BlockFvN	1	A	2	1	2
252899	68	0.7701305	6	e	1	BlockFvN	1	A	2	1	2
252899	69	1.5644231	6	f	0	BlockFvN	1	B	1	2	2
252899	70	1.1906312	6	e	1	BlockFvN	1	B	1	2	2
252899	74	0.7920447	6	e	1	BlockFvN	1	A	2	1	2
252899	75	1.31043	6	f	0	BlockFvN	1	B	1	2	2
252899	105	0.7285265	6	f	0	BlockFvN	1	A	2	1	2
252899	107	0.768851	6	f	0	BlockFvN	1	B	1	2	2
252899	109	0.6004912	6	e	1	BlockFvN	1	B	1	2	2
252899	110	0.7596774	6	f	0	BlockFvN	1	A	2	1	2
252899	111	0.7208142	6	e	1	BlockFvN	1	A	2	1	2
252899	113	0.9694075	6	e	1	BlockFvN	1	B	1	2	2
252899	114	0.8750062	6	f	0	BlockFvN	1	A	2	1	2
252899	115	0.6884969	6	e	1	BlockFvN	1	B	1	2	2
252899	119	0.73505	6	e	1	BlockFvN	1	A	2	1	2
252899	120	0.6486891	6	e	1	BlockFvN	1	B	1	2	2
252899	122	0.806019	6	e	1	BlockFvN	1	A	2	1	2
252899	123	0.6049624	6	e	1	BlockFvN	1	B	1	2	2
252899	124	0.6043995	6	e	1	BlockFvN	1	B	1	2	2
252899	151	0.7697838	6	e	1	BlockFvN	1	A	2	1	2
252899	153	0.5986405	6	e	1	BlockFvN	1	B	1	2	2
252899	154	0.7272081	6	e	1	BlockFvN	1	B	1	2	2
252899	155	0.4812183	6	e	1	BlockFvN	1	A	2	1	2
252899	157	1.0788933	6	f	0	BlockFvN	1	B	1	2	2
252899	159	0.9502577	6	f	0	BlockFvN	1	A	2	1	2
252899	162	1.1220691	6	e	1	BlockFvN	1	A	2	1	2
252899	163	0.7972297	6	e	1	BlockFvN	1	A	2	1	2
252899	166	1.1834367	6	f	0	BlockFvN	1	B	1	2	2
252899	168	0.8714413	6	e	1	BlockFvN	1	A	2	1	2
252899	170	0.7409827	6	f	0	BlockFvN	1	A	2	1	2
252899	173	1.6897264	6	e	1	BlockFvN	1	B	1	2	2
252899	175	0.9561815	6	f	0	BlockFvN	1	B	1	2	2
252899	2	0.8436085	6	n	0	BlockF_1	2	A	2	1	2
252899	4	1.0223282	6	b	1	BlockF_1	2	B	1	2	2
252899	5	0.8292408	6	n	0	BlockF_1	2	A	2	1	2
252899	6	0.7728706	6	b	1	BlockF_1	2	B	1	2	2
252899	9	0.647412	6	b	1	BlockF_1	2	B	1	2	2
252899	11	0.5591322	6	b	1	BlockF_1	2	B	1	2	2
252899	12	0.7678671	6	b	1	BlockF_1	2	B	1	2	2
252899	13	0.6171831	6	b	1	BlockF_1	2	B	1	2	2
252899	15	0.6167125	6	n	0	BlockF_1	2	A	2	1	2
252899	16	0.6482158	6	b	1	BlockF_1	2	A	2	1	2
252899	17	1.2057693	6	b	1	BlockF_1	2	A	2	1	2
252899	19	0.6856613	6	n	0	BlockF_1	2	A	2	1	2
252899	24	0.8711304	6	n	0	BlockF_1	2	A	2	1	2
252899	26	0.8330806	6	n	1	BlockN_1	3	A	2	1	2
252899	27	0.8558861	6	n	1	BlockN_1	3	B	1	2	2
252899	28	0.6198475	6	b	0	BlockN_1	3	B	1	2	2
252899	29	1.0525816	6	b	0	BlockN_1	3	A	2	1	2
252899	30	0.6813328	6	n	1	BlockN_1	3	B	1	2	2
252899	34	0.9610951	6	b	0	BlockN_1	3	A	2	1	2
252899	36	1.196249	6	n	1	BlockN_1	3	A	2	1	2
252899	38	0.6972536	6	n	1	BlockN_1	3	B	1	2	2
252899	39	0.5173725	6	n	1	BlockN_1	3	B	1	2	2
252899	41	0.6766403	6	n	1	BlockN_1	3	B	1	2	2
252899	43	0.982985	6	n	1	BlockN_1	3	B	1	2	2
252899	44	1.0643418	6	n	1	BlockN_1	3	A	2	1	2
252899	49	1.3149908	6	b	0	BlockN_1	3	A	2	1	2
252899	105	0.7615509	6	n	0	BlockF_1	2	A	2	1	2
252899	107	1.2711872	6	b	1	BlockF_1	2	B	1	2	2
252899	109	0.7619589	6	b	1	BlockF_1	2	B	1	2	2
252899	110	1.5716685	6	n	0	BlockF_1	2	A	2	1	2
252899	111	1.2601782	6	n	0	BlockF_1	2	A	2	1	2
252899	113	0.8079934	6	b	1	BlockF_1	2	B	1	2	2
252899	114	1.0075315	6	b	1	BlockF_1	2	A	2	1	2
252899	115	1.0572627	6	n	0	BlockF_1	2	B	1	2	2
252899	119	1.0189793	6	b	1	BlockF_1	2	A	2	1	2
252899	120	1.3388589	6	b	1	BlockF_1	2	B	1	2	2
252899	122	1.4698765	6	b	1	BlockF_1	2	A	2	1	2
252899	123	0.859311	6	b	1	BlockF_1	2	B	1	2	2
252899	124	0.7860836	6	b	1	BlockF_1	2	B	1	2	2
252899	126	1.3400225	6	n	1	BlockN_1	3	A	2	1	2
252899	127	0.5732185	6	n	1	BlockN_1	3	B	1	2	2
252899	130	0.700051	6	n	1	BlockN_1	3	B	1	2	2
252899	131	0.8702269	6	n	1	BlockN_1	3	A	2	1	2
252899	132	0.588593	6	n	1	BlockN_1	3	B	1	2	2
252899	134	0.5709057	6	n	1	BlockN_1	3	A	2	1	2
252899	136	1.0613439	6	n	1	BlockN_1	3	B	1	2	2
252899	139	1.8092187	6	b	0	BlockN_1	3	A	2	1	2
252899	141	0.5094186	6	b	0	BlockN_1	3	A	2	1	2
252899	143	0.8467498	6	n	1	BlockN_1	3	B	1	2	2
252899	144	0.9338554	6	n	1	BlockN_1	3	A	2	1	2
252899	146	1.2001326	6	n	1	BlockN_1	3	B	1	2	2
252899	149	0.7316447	6	b	0	BlockN_1	3	B	1	2	2
252899	202	0.5921093	6	n	0	BlockF_1	2	A	2	1	2
252899	206	0.6373893	6	b	1	BlockF_1	2	B	1	2	2
252899	209	1.0064757	6	b	1	BlockF_1	2	B	1	2	2
252899	211	0.6853597	6	b	1	BlockF_1	2	B	1	2	2
252899	212	0.6984186	6	b	1	BlockF_1	2	B	1	2	2
252899	213	0.5670267	6	b	1	BlockF_1	2	B	1	2	2
252899	215	0.5857802	6	b	1	BlockF_1	2	A	2	1	2
252899	216	0.9230586	6	b	1	BlockF_1	2	A	2	1	2
252899	217	0.8475531	6	b	1	BlockF_1	2	A	2	1	2
252899	219	0.7048568	6	b	1	BlockF_1	2	A	2	1	2
252899	224	1.2658735	6	n	0	BlockF_1	2	A	2	1	2
252899	226	0.809119	6	n	1	BlockN_1	3	A	2	1	2
252899	227	0.7680931	6	b	0	BlockN_1	3	B	1	2	2
252899	228	0.6649759	6	b	0	BlockN_1	3	B	1	2	2
252899	229	1.0321883	6	n	1	BlockN_1	3	A	2	1	2
252899	230	0.6137655	6	n	1	BlockN_1	3	B	1	2	2
252899	234	1.5436984	6	n	1	BlockN_1	3	A	2	1	2
252899	236	0.9058844	6	n	1	BlockN_1	3	A	2	1	2
252899	238	0.6346388	6	b	0	BlockN_1	3	B	1	2	2
252899	239	0.6652619	6	b	0	BlockN_1	3	B	1	2	2
252899	241	0.9690046	6	n	1	BlockN_1	3	B	1	2	2
252899	243	1.614505	6	b	0	BlockN_1	3	A	2	1	2
252899	244	0.9342381	6	n	1	BlockN_1	3	A	2	1	2
252899	249	1.5322402	6	b	0	BlockN_1	3	A	2	1	2
252899	305	0.645882	6	b	1	BlockF_1	2	A	2	1	2
252899	307	0.7102188	6	n	0	BlockF_1	2	B	1	2	2
252899	309	0.5939974	6	b	1	BlockF_1	2	B	1	2	2
252899	310	0.7869926	6	n	0	BlockF_1	2	A	2	1	2
252899	311	0.9071772	6	n	0	BlockF_1	2	A	2	1	2
252899	313	0.6713435	6	n	0	BlockF_1	2	B	1	2	2
252899	314	0.7171254	6	n	0	BlockF_1	2	A	2	1	2
252899	315	0.8557018	6	b	1	BlockF_1	2	B	1	2	2
252899	319	0.6126996	6	n	0	BlockF_1	2	A	2	1	2
252899	320	0.5808406	6	n	0	BlockF_1	2	B	1	2	2
252899	322	1.3836615	6	b	1	BlockF_1	2	A	2	1	2
252899	323	1.0981588	6	b	1	BlockF_1	2	B	1	2	2
252899	324	0.7746275	6	b	1	BlockF_1	2	B	1	2	2
252899	326	0.8312424	6	n	1	BlockN_1	3	A	2	1	2
252899	330	0.561261	6	n	1	BlockN_1	3	B	1	2	2
252899	331	0.7563742	6	b	0	BlockN_1	3	A	2	1	2
252899	332	0.4615779	6	b	0	BlockN_1	3	B	1	2	2
252899	334	0.4417336	6	b	0	BlockN_1	3	A	2	1	2
252899	336	0.5825773	6	b	0	BlockN_1	3	B	1	2	2
252899	339	0.7816049	6	b	0	BlockN_1	3	A	2	1	2
252899	341	0.8431895	6	b	0	BlockN_1	3	A	2	1	2
252899	343	0.4150659	6	b	0	BlockN_1	3	B	1	2	2
252899	344	0.5341014	6	b	0	BlockN_1	3	A	2	1	2
252899	349	0.6866795	6	n	1	BlockN_1	3	B	1	2	2
259662	2	1.0212049	6	f	0	BlockFvN	1	A	2	1	2
259662	6	0.7976823	6	e	1	BlockFvN	1	B	1	2	2
259662	9	0.8795863	6	e	1	BlockFvN	1	B	1	2	2
259662	11	0.9658383	6	e	1	BlockFvN	1	B	1	2	2
259662	12	0.9191275	6	e	1	BlockFvN	1	B	1	2	2
259662	13	0.923072	6	e	1	BlockFvN	1	B	1	2	2
259662	15	1.4771134	6	f	0	BlockFvN	1	A	2	1	2
259662	16	4.0024938	6	e	1	BlockFvN	1	A	2	1	2
259662	17	0.894426	6	f	0	BlockFvN	1	A	2	1	2
259662	24	1.203966	6	f	0	BlockFvN	1	A	2	1	2
259662	51	0.9041069	6	e	1	BlockFvN	1	B	1	2	2
259662	55	0.9817591	6	f	0	BlockFvN	1	A	2	1	2
259662	56	0.8714567	6	e	1	BlockFvN	1	B	1	2	2
259662	58	0.947078	6	e	1	BlockFvN	1	B	1	2	2
259662	59	1.2215016	6	f	0	BlockFvN	1	A	2	1	2
259662	60	1.02014	6	e	1	BlockFvN	1	B	1	2	2
259662	64	1.1907628	6	f	0	BlockFvN	1	A	2	1	2
259662	65	0.893486	6	f	0	BlockFvN	1	A	2	1	2
259662	66	0.8664098	6	f	0	BlockFvN	1	A	2	1	2
259662	68	0.875674	6	f	0	BlockFvN	1	A	2	1	2
259662	69	0.8334281	6	e	1	BlockFvN	1	B	1	2	2
259662	70	0.7591971	6	e	1	BlockFvN	1	B	1	2	2
259662	74	2.1996506	6	e	1	BlockFvN	1	A	2	1	2
259662	75	0.9049552	6	e	1	BlockFvN	1	B	1	2	2
259662	105	0.8204924	6	f	0	BlockFvN	1	A	2	1	2
259662	107	0.7735742	6	e	1	BlockFvN	1	B	1	2	2
259662	109	0.781874	6	e	1	BlockFvN	1	B	1	2	2
259662	110	0.7582344	6	f	0	BlockFvN	1	A	2	1	2
259662	111	1.1344019	6	e	1	BlockFvN	1	A	2	1	2
259662	113	0.6310039	6	e	1	BlockFvN	1	B	1	2	2
259662	114	0.7259466	6	f	0	BlockFvN	1	A	2	1	2
259662	115	0.7689513	6	e	1	BlockFvN	1	B	1	2	2
259662	119	2.6231448	6	e	1	BlockFvN	1	A	2	1	2
259662	120	0.9577931	6	e	1	BlockFvN	1	B	1	2	2
259662	122	1.3498613	6	f	0	BlockFvN	1	A	2	1	2
259662	123	0.8255204	6	e	1	BlockFvN	1	B	1	2	2
259662	124	0.8320408	6	e	1	BlockFvN	1	B	1	2	2
259662	151	1.1738723	6	f	0	BlockFvN	1	A	2	1	2
259662	153	0.6016424	6	e	1	BlockFvN	1	B	1	2	2
259662	154	1.1789419	6	e	1	BlockFvN	1	B	1	2	2
259662	155	0.7562616	6	f	0	BlockFvN	1	A	2	1	2
259662	157	0.6852177	6	e	1	BlockFvN	1	B	1	2	2
259662	159	0.8064031	6	f	0	BlockFvN	1	A	2	1	2
259662	162	0.7396402	6	f	0	BlockFvN	1	A	2	1	2
259662	163	0.7017144	6	f	0	BlockFvN	1	A	2	1	2
259662	166	0.9294635	6	e	1	BlockFvN	1	B	1	2	2
259662	168	0.761964	6	f	0	BlockFvN	1	A	2	1	2
259662	170	0.9135275	6	f	0	BlockFvN	1	A	2	1	2
259662	173	0.7876609	6	e	1	BlockFvN	1	B	1	2	2
259662	175	0.5819093	6	e	1	BlockFvN	1	B	1	2	2
259662	2	1.4196608	6	n	0	BlockF_1	2	A	2	1	2
259662	4	0.8147709	6	b	1	BlockF_1	2	B	1	2	2
259662	5	1.0005999	6	n	0	BlockF_1	2	A	2	1	2
259662	6	0.6160251	6	b	1	BlockF_1	2	B	1	2	2
259662	9	0.6473159	6	b	1	BlockF_1	2	B	1	2	2
259662	11	0.7734575	6	b	1	BlockF_1	2	B	1	2	2
259662	12	0.6684792	6	b	1	BlockF_1	2	B	1	2	2
259662	13	0.5858579	6	b	1	BlockF_1	2	B	1	2	2
259662	15	0.5392967	6	n	0	BlockF_1	2	A	2	1	2
259662	16	0.5747726	6	b	1	BlockF_1	2	A	2	1	2
259662	17	0.6390655	6	b	1	BlockF_1	2	A	2	1	2
259662	19	0.9529391	6	b	1	BlockF_1	2	A	2	1	2
259662	24	1.4569214	6	b	1	BlockF_1	2	A	2	1	2
259662	26	1.2333371	6	n	1	BlockN_1	3	A	2	1	2
259662	27	1.0958957	6	n	1	BlockN_1	3	B	1	2	2
259662	28	0.7097736	6	n	1	BlockN_1	3	B	1	2	2
259662	29	0.6575489	6	b	0	BlockN_1	3	A	2	1	2
259662	30	0.8956701	6	n	1	BlockN_1	3	B	1	2	2
259662	34	0.9507837	6	b	0	BlockN_1	3	A	2	1	2
259662	36	0.9076211	6	n	1	BlockN_1	3	A	2	1	2
259662	38	2.0331961	6	n	1	BlockN_1	3	B	1	2	2
259662	39	1.0013428	6	n	1	BlockN_1	3	B	1	2	2
259662	41	0.663768	6	n	1	BlockN_1	3	B	1	2	2
259662	43	0.8016304	6	n	1	BlockN_1	3	B	1	2	2
259662	44	1.9467934	6	n	1	BlockN_1	3	A	2	1	2
259662	49	1.3057494	6	b	0	BlockN_1	3	A	2	1	2
259662	105	2.289674	6	n	0	BlockF_1	2	A	2	1	2
259662	107	0.7409514	6	b	1	BlockF_1	2	B	1	2	2
259662	109	0.6168087	6	b	1	BlockF_1	2	B	1	2	2
259662	110	0.662292	6	n	0	BlockF_1	2	A	2	1	2
259662	111	0.7566234	6	b	1	BlockF_1	2	A	2	1	2
259662	113	0.6553805	6	b	1	BlockF_1	2	B	1	2	2
259662	114	1.4376816	6	n	0	BlockF_1	2	A	2	1	2
259662	115	0.6524075	6	b	1	BlockF_1	2	B	1	2	2
259662	119	0.55532	6	n	0	BlockF_1	2	A	2	1	2
259662	120	0.6521484	6	b	1	BlockF_1	2	B	1	2	2
259662	122	1.1153455	6	b	1	BlockF_1	2	A	2	1	2
259662	123	0.7420381	6	b	1	BlockF_1	2	B	1	2	2
259662	124	0.7352122	6	b	1	BlockF_1	2	B	1	2	2
259662	126	1.4518148	6	b	0	BlockN_1	3	A	2	1	2
259662	127	0.6353499	6	n	1	BlockN_1	3	B	1	2	2
259662	130	0.6227102	6	n	1	BlockN_1	3	B	1	2	2
259662	131	0.9101078	6	b	0	BlockN_1	3	A	2	1	2
259662	132	0.8499952	6	n	1	BlockN_1	3	B	1	2	2
259662	134	1.1564052	6	b	0	BlockN_1	3	A	2	1	2
259662	136	0.64725	6	n	1	BlockN_1	3	B	1	2	2
259662	139	1.4208396	6	n	1	BlockN_1	3	A	2	1	2
259662	141	0.7881589	6	b	0	BlockN_1	3	A	2	1	2
259662	143	0.6953075	6	n	1	BlockN_1	3	B	1	2	2
259662	144	0.6422942	6	n	1	BlockN_1	3	A	2	1	2
259662	146	2.3049066	6	b	0	BlockN_1	3	B	1	2	2
259662	149	2.0784746	6	n	1	BlockN_1	3	B	1	2	2
259662	202	0.6108038	6	n	0	BlockF_1	2	A	2	1	2
259662	206	0.4876082	6	b	1	BlockF_1	2	B	1	2	2
259662	209	0.6151433	6	b	1	BlockF_1	2	B	1	2	2
259662	211	0.7299575	6	b	1	BlockF_1	2	B	1	2	2
259662	212	0.5637979	6	b	1	BlockF_1	2	B	1	2	2
259662	213	1.0138379	6	b	1	BlockF_1	2	B	1	2	2
259662	215	0.511054	6	n	0	BlockF_1	2	A	2	1	2
259662	216	0.7375615	6	b	1	BlockF_1	2	A	2	1	2
259662	217	1.3734454	6	n	0	BlockF_1	2	A	2	1	2
259662	219	1.4051028	6	n	0	BlockF_1	2	A	2	1	2
259662	224	1.1174718	6	n	0	BlockF_1	2	A	2	1	2
259662	226	1.2195992	6	b	0	BlockN_1	3	A	2	1	2
259662	227	0.5854416	6	n	1	BlockN_1	3	B	1	2	2
259662	228	1.0330056	6	n	1	BlockN_1	3	B	1	2	2
259662	229	1.3210107	6	n	1	BlockN_1	3	A	2	1	2
259662	230	1.6930348	6	b	0	BlockN_1	3	B	1	2	2
259662	234	0.7495536	6	b	0	BlockN_1	3	A	2	1	2
259662	236	1.3598229	6	n	1	BlockN_1	3	A	2	1	2
259662	238	1.1342205	6	n	1	BlockN_1	3	B	1	2	2
259662	239	1.0816808	6	n	1	BlockN_1	3	B	1	2	2
259662	241	0.9378946	6	n	1	BlockN_1	3	B	1	2	2
259662	243	0.5678847	6	n	1	BlockN_1	3	A	2	1	2
259662	244	0.6493841	6	b	0	BlockN_1	3	A	2	1	2
259662	249	0.5767806	6	n	1	BlockN_1	3	A	2	1	2
259662	305	0.5335126	6	n	0	BlockF_1	2	A	2	1	2
259662	307	0.662598	6	b	1	BlockF_1	2	B	1	2	2
259662	309	0.5650006	6	b	1	BlockF_1	2	B	1	2	2
259662	310	0.694838	6	n	0	BlockF_1	2	A	2	1	2
259662	311	0.5463312	6	b	1	BlockF_1	2	A	2	1	2
259662	313	0.661939	6	b	1	BlockF_1	2	B	1	2	2
259662	314	0.6422555	6	n	0	BlockF_1	2	A	2	1	2
259662	315	0.9136036	6	n	0	BlockF_1	2	B	1	2	2
259662	319	0.7236008	6	n	0	BlockF_1	2	A	2	1	2
259662	320	0.4473277	6	b	1	BlockF_1	2	B	1	2	2
259662	322	0.5955688	6	n	0	BlockF_1	2	A	2	1	2
259662	323	0.6133274	6	b	1	BlockF_1	2	B	1	2	2
259662	324	0.7402479	6	b	1	BlockF_1	2	B	1	2	2
259662	326	1.8890759	6	n	1	BlockN_1	3	A	2	1	2
259662	330	0.6816902	6	n	1	BlockN_1	3	B	1	2	2
259662	331	1.2723254	6	n	1	BlockN_1	3	A	2	1	2
259662	332	1.3735329	6	n	1	BlockN_1	3	B	1	2	2
259662	334	0.7795255	6	n	1	BlockN_1	3	A	2	1	2
259662	336	0.5762431	6	n	1	BlockN_1	3	B	1	2	2
259662	339	0.707762	6	n	1	BlockN_1	3	A	2	1	2
259662	341	0.6489082	6	n	1	BlockN_1	3	A	2	1	2
259662	343	0.5415264	6	n	1	BlockN_1	3	B	1	2	2
259662	344	0.7008987	6	n	1	BlockN_1	3	A	2	1	2
259662	349	0.7274058	6	n	1	BlockN_1	3	B	1	2	2
265629	2	1.8378054	6	e	1	BlockFvN	1	A	2	1	2
265629	6	1.2075146	6	e	1	BlockFvN	1	B	1	2	2
265629	9	1.5810256	6	e	1	BlockFvN	1	B	1	2	2
265629	11	1.0117659	6	e	1	BlockFvN	1	B	1	2	2
265629	12	0.8201847	6	e	1	BlockFvN	1	B	1	2	2
265629	13	1.0178626	6	e	1	BlockFvN	1	B	1	2	2
265629	15	2.4806471	6	e	1	BlockFvN	1	A	2	1	2
265629	16	1.1596035	6	e	1	BlockFvN	1	A	2	1	2
265629	17	0.9773261	6	f	0	BlockFvN	1	A	2	1	2
265629	24	1.6493916	6	e	1	BlockFvN	1	A	2	1	2
265629	51	1.3355502	6	e	1	BlockFvN	1	B	1	2	2
265629	55	0.7222791	6	e	1	BlockFvN	1	A	2	1	2
265629	56	0.6850981	6	e	1	BlockFvN	1	B	1	2	2
265629	58	0.7673677	6	e	1	BlockFvN	1	B	1	2	2
265629	59	0.7593422	6	e	1	BlockFvN	1	A	2	1	2
265629	60	0.6904106	6	e	1	BlockFvN	1	B	1	2	2
265629	64	0.6205929	6	e	1	BlockFvN	1	A	2	1	2
265629	65	1.7242937	6	f	0	BlockFvN	1	A	2	1	2
265629	66	0.8627335	6	e	1	BlockFvN	1	A	2	1	2
265629	68	0.6577596	6	e	1	BlockFvN	1	A	2	1	2
265629	69	0.5272081	6	e	1	BlockFvN	1	B	1	2	2
265629	70	0.6249934	6	e	1	BlockFvN	1	B	1	2	2
265629	74	0.5367679	6	e	1	BlockFvN	1	A	2	1	2
265629	75	0.5069106	6	e	1	BlockFvN	1	B	1	2	2
265629	105	1.1914961	6	e	1	BlockFvN	1	A	2	1	2
265629	107	0.7726429	6	e	1	BlockFvN	1	B	1	2	2
265629	109	0.6956751	6	e	1	BlockFvN	1	B	1	2	2
265629	110	1.3801987	6	e	1	BlockFvN	1	A	2	1	2
265629	111	1.444321	6	e	1	BlockFvN	1	A	2	1	2
265629	113	0.559787	6	f	0	BlockFvN	1	B	1	2	2
265629	114	1.4723556	6	e	1	BlockFvN	1	A	2	1	2
265629	115	1.469406	6	e	1	BlockFvN	1	B	1	2	2
265629	119	3.1686701	6	e	1	BlockFvN	1	A	2	1	2
265629	120	0.9091888	6	e	1	BlockFvN	1	B	1	2	2
265629	122	1.3415449	6	f	0	BlockFvN	1	A	2	1	2
265629	123	0.6868634	6	e	1	BlockFvN	1	B	1	2	2
265629	124	0.7796079	6	e	1	BlockFvN	1	B	1	2	2
265629	151	0.74761	6	f	0	BlockFvN	1	A	2	1	2
265629	153	0.6921336	6	e	1	BlockFvN	1	B	1	2	2
265629	154	1.6327947	6	e	1	BlockFvN	1	B	1	2	2
265629	155	0.8231172	6	f	0	BlockFvN	1	A	2	1	2
265629	157	0.7694379	6	e	1	BlockFvN	1	B	1	2	2
265629	159	0.7167884	6	e	1	BlockFvN	1	A	2	1	2
265629	162	1.9642611	6	f	0	BlockFvN	1	A	2	1	2
265629	163	0.8077155	6	e	1	BlockFvN	1	A	2	1	2
265629	166	0.9460662	6	f	0	BlockFvN	1	B	1	2	2
265629	168	1.0498383	6	e	1	BlockFvN	1	A	2	1	2
265629	170	0.7997964	6	e	1	BlockFvN	1	A	2	1	2
265629	173	0.6546239	6	e	1	BlockFvN	1	B	1	2	2
265629	175	1.4087114	6	e	1	BlockFvN	1	B	1	2	2
265629	2	1.6653743	6	b	0	BlockN_1	3	A	2	1	2
265629	4	0.7832959	6	n	1	BlockN_1	3	B	1	2	2
265629	5	0.871952	6	b	0	BlockN_1	3	A	2	1	2
265629	6	2.1079283	6	n	1	BlockN_1	3	B	1	2	2
265629	9	1.4018239	6	n	1	BlockN_1	3	B	1	2	2
265629	11	0.8819093	6	n	1	BlockN_1	3	B	1	2	2
265629	12	0.7740225	6	n	1	BlockN_1	3	B	1	2	2
265629	13	1.0242237	6	n	1	BlockN_1	3	B	1	2	2
265629	15	0.6684993	6	b	0	BlockN_1	3	A	2	1	2
265629	16	2.8240754	6	n	1	BlockN_1	3	A	2	1	2
265629	17	1.026984	6	n	1	BlockN_1	3	A	2	1	2
265629	19	1.3996369	6	b	0	BlockN_1	3	A	2	1	2
265629	24	0.8042161	6	b	0	BlockN_1	3	A	2	1	2
265629	26	3.0889832	6	n	0	BlockF_1	2	A	2	1	2
265629	27	3.2468584	6	n	0	BlockF_1	2	B	1	2	2
265629	28	0.8701668	6	b	1	BlockF_1	2	B	1	2	2
265629	29	0.8447142	6	n	0	BlockF_1	2	A	2	1	2
265629	30	3.2655044	6	b	1	BlockF_1	2	B	1	2	2
265629	34	1.174036	6	n	0	BlockF_1	2	A	2	1	2
265629	36	1.5719217	6	n	0	BlockF_1	2	A	2	1	2
265629	38	0.9665062	6	n	0	BlockF_1	2	B	1	2	2
265629	39	1.3994665	6	b	1	BlockF_1	2	B	1	2	2
265629	41	1.1127527	6	b	1	BlockF_1	2	B	1	2	2
265629	43	1.0735217	6	b	1	BlockF_1	2	B	1	2	2
265629	44	0.9105497	6	n	0	BlockF_1	2	A	2	1	2
265629	49	0.7716318	6	n	0	BlockF_1	2	A	2	1	2
265629	105	2.3514055	6	b	0	BlockN_1	3	A	2	1	2
265629	107	1.3488923	6	n	1	BlockN_1	3	B	1	2	2
265629	109	0.9721115	6	n	1	BlockN_1	3	B	1	2	2
265629	110	0.9409135	6	b	0	BlockN_1	3	A	2	1	2
265629	111	0.9427887	6	n	1	BlockN_1	3	A	2	1	2
265629	113	1.3221573	6	b	0	BlockN_1	3	B	1	2	2
265629	114	1.149085	6	b	0	BlockN_1	3	A	2	1	2
265629	115	1.2878495	6	b	0	BlockN_1	3	B	1	2	2
265629	119	0.9345469	6	b	0	BlockN_1	3	A	2	1	2
265629	120	0.9699894	6	n	1	BlockN_1	3	B	1	2	2
265629	122	1.5896641	6	b	0	BlockN_1	3	A	2	1	2
265629	123	2.0953548	6	b	0	BlockN_1	3	B	1	2	2
265629	124	1.3156481	6	b	0	BlockN_1	3	B	1	2	2
265629	126	4.6371042	6	b	1	BlockF_1	2	A	2	1	2
265629	127	1.1041014	6	n	0	BlockF_1	2	B	1	2	2
265629	130	1.545748	6	n	0	BlockF_1	2	B	1	2	2
265629	131	0.8525961	6	n	0	BlockF_1	2	A	2	1	2
265629	132	0.6836955	6	n	0	BlockF_1	2	B	1	2	2
265629	134	1.3787584	6	n	0	BlockF_1	2	A	2	1	2
265629	136	0.7367403	6	b	1	BlockF_1	2	B	1	2	2
265629	139	2.1250857	6	n	0	BlockF_1	2	A	2	1	2
265629	141	0.8294305	6	n	0	BlockF_1	2	A	2	1	2
265629	143	0.6960452	6	b	1	BlockF_1	2	B	1	2	2
265629	144	0.6274159	6	b	1	BlockF_1	2	A	2	1	2
265629	146	0.6750874	6	b	1	BlockF_1	2	B	1	2	2
265629	149	1.3233183	6	b	1	BlockF_1	2	B	1	2	2
265629	202	1.8707722	6	b	0	BlockN_1	3	A	2	1	2
265629	206	0.8403453	6	n	1	BlockN_1	3	B	1	2	2
265629	209	0.8067668	6	n	1	BlockN_1	3	B	1	2	2
265629	211	0.8458262	6	n	1	BlockN_1	3	B	1	2	2
265629	212	1.1412951	6	n	1	BlockN_1	3	B	1	2	2
265629	213	3.0076627	6	n	1	BlockN_1	3	B	1	2	2
265629	215	0.8769497	6	b	0	BlockN_1	3	A	2	1	2
265629	216	2.2593334	6	b	0	BlockN_1	3	A	2	1	2
265629	217	0.706995	6	b	0	BlockN_1	3	A	2	1	2
265629	219	0.8439219	6	b	0	BlockN_1	3	A	2	1	2
265629	224	0.7111942	6	b	0	BlockN_1	3	A	2	1	2
265629	226	0.898597	6	n	0	BlockF_1	2	A	2	1	2
265629	227	0.7109062	6	b	1	BlockF_1	2	B	1	2	2
265629	228	0.9468267	6	b	1	BlockF_1	2	B	1	2	2
265629	229	1.1399392	6	n	0	BlockF_1	2	A	2	1	2
265629	230	0.7984528	6	b	1	BlockF_1	2	B	1	2	2
265629	234	1.0025268	6	n	0	BlockF_1	2	A	2	1	2
265629	236	2.0384076	6	b	1	BlockF_1	2	A	2	1	2
265629	238	1.0013685	6	b	1	BlockF_1	2	B	1	2	2
265629	239	2.6179128	6	n	0	BlockF_1	2	B	1	2	2
265629	241	0.6234921	6	b	1	BlockF_1	2	B	1	2	2
265629	243	2.1990346	6	n	0	BlockF_1	2	A	2	1	2
265629	244	0.9206401	6	n	0	BlockF_1	2	A	2	1	2
265629	249	1.7373561	6	n	0	BlockF_1	2	A	2	1	2
265629	305	2.6732174	6	n	1	BlockN_1	3	A	2	1	2
265629	307	0.6833873	6	n	1	BlockN_1	3	B	1	2	2
265629	309	0.6907265	6	n	1	BlockN_1	3	B	1	2	2
265629	310	1.7586173	6	b	0	BlockN_1	3	A	2	1	2
265629	311	1.6646469	6	n	1	BlockN_1	3	A	2	1	2
265629	313	0.8514994	6	n	1	BlockN_1	3	B	1	2	2
265629	314	2.0085427	6	b	0	BlockN_1	3	A	2	1	2
265629	315	1.058277	6	b	0	BlockN_1	3	B	1	2	2
265629	319	2.0068906	6	b	0	BlockN_1	3	A	2	1	2
265629	320	1.0402138	6	n	1	BlockN_1	3	B	1	2	2
265629	322	0.9627458	6	b	0	BlockN_1	3	A	2	1	2
265629	323	0.8861574	6	n	1	BlockN_1	3	B	1	2	2
265629	324	1.4331697	6	n	1	BlockN_1	3	B	1	2	2
265629	326	0.9587648	6	n	0	BlockF_1	2	A	2	1	2
265629	330	2.0139424	6	b	1	BlockF_1	2	B	1	2	2
265629	331	1.2701841	6	n	0	BlockF_1	2	A	2	1	2
265629	332	1.0556302	6	b	1	BlockF_1	2	B	1	2	2
265629	334	0.7295533	6	n	0	BlockF_1	2	A	2	1	2
265629	336	0.6785701	6	b	1	BlockF_1	2	B	1	2	2
265629	339	1.3766336	6	n	0	BlockF_1	2	A	2	1	2
265629	341	0.6563102	6	n	0	BlockF_1	2	A	2	1	2
265629	343	0.7803453	6	b	1	BlockF_1	2	B	1	2	2
265629	344	0.8531186	6	b	1	BlockF_1	2	A	2	1	2
265629	349	1.0688668	6	n	0	BlockF_1	2	B	1	2	2
281380	2	0.6873972	6	f	0	BlockFvN	1	A	2	1	2
281380	6	0.4444295	6	f	0	BlockFvN	1	B	1	2	2
281380	9	0.4489192	6	f	0	BlockFvN	1	B	1	2	2
281380	11	0.4139264	6	f	0	BlockFvN	1	B	1	2	2
281380	12	0.4846844	6	e	1	BlockFvN	1	B	1	2	2
281380	13	0.4720638	6	e	1	BlockFvN	1	B	1	2	2
281380	15	0.3102217	6	e	1	BlockFvN	1	A	2	1	2
281380	16	0.3387671	6	e	1	BlockFvN	1	A	2	1	2
281380	17	0.3328799	6	e	1	BlockFvN	1	A	2	1	2
281380	24	0.6506877	6	f	0	BlockFvN	1	A	2	1	2
281380	51	0.638167	6	e	1	BlockFvN	1	B	1	2	2
281380	55	0.5785346	6	e	1	BlockFvN	1	A	2	1	2
281380	56	0.3068009	6	f	0	BlockFvN	1	B	1	2	2
281380	58	0.4060376	6	f	0	BlockFvN	1	B	1	2	2
281380	59	0.3825066	6	f	0	BlockFvN	1	A	2	1	2
281380	60	0.5026502	6	f	0	BlockFvN	1	B	1	2	2
281380	64	0.4159756	6	e	1	BlockFvN	1	A	2	1	2
281380	65	0.4883206	6	e	1	BlockFvN	1	A	2	1	2
281380	66	0.2990851	6	e	1	BlockFvN	1	A	2	1	2
281380	68	0.290407	6	e	1	BlockFvN	1	A	2	1	2
281380	69	0.4607109	6	e	1	BlockFvN	1	B	1	2	2
281380	70	0.4671443	6	f	0	BlockFvN	1	B	1	2	2
281380	74	0.5011443	6	e	1	BlockFvN	1	A	2	1	2
281380	75	0.2971261	6	e	1	BlockFvN	1	B	1	2	2
281380	105	0.4002734	6	e	1	BlockFvN	1	A	2	1	2
281380	107	0.3690088	6	e	1	BlockFvN	1	B	1	2	2
281380	109	0.5537158	6	f	0	BlockFvN	1	B	1	2	2
281380	110	0.4442624	6	f	0	BlockFvN	1	A	2	1	2
281380	111	0.3844221	6	f	0	BlockFvN	1	A	2	1	2
281380	113	0.3136365	6	e	1	BlockFvN	1	B	1	2	2
281380	114	0.2915864	6	e	1	BlockFvN	1	A	2	1	2
281380	115	0.4177964	6	e	1	BlockFvN	1	B	1	2	2
281380	119	0.3917488	6	e	1	BlockFvN	1	A	2	1	2
281380	120	0.31945	6	f	0	BlockFvN	1	B	1	2	2
281380	122	0.30917	6	e	1	BlockFvN	1	A	2	1	2
281380	123	0.593491	6	e	1	BlockFvN	1	B	1	2	2
281380	124	0.3690995	6	e	1	BlockFvN	1	B	1	2	2
281380	151	0.6126942	6	e	1	BlockFvN	1	A	2	1	2
281380	153	0.57857	6	e	1	BlockFvN	1	B	1	2	2
281380	154	0.5774856	6	e	1	BlockFvN	1	B	1	2	2
281380	155	0.563451	6	e	1	BlockFvN	1	A	2	1	2
281380	157	0.361782	6	e	1	BlockFvN	1	B	1	2	2
281380	159	0.4450776	6	e	1	BlockFvN	1	A	2	1	2
281380	162	0.5490789	6	e	1	BlockFvN	1	A	2	1	2
281380	163	0.4550225	6	e	1	BlockFvN	1	A	2	1	2
281380	166	0.3830413	6	f	0	BlockFvN	1	B	1	2	2
281380	168	0.6684174	6	e	1	BlockFvN	1	A	2	1	2
281380	170	0.506429	6	e	1	BlockFvN	1	A	2	1	2
281380	173	0.5037548	6	f	0	BlockFvN	1	B	1	2	2
281380	175	0.3868556	6	f	0	BlockFvN	1	B	1	2	2
281380	2	0.6577385	6	n	1	BlockN_1	3	A	2	1	2
281380	4	0.7828215	6	n	1	BlockN_1	3	B	1	2	2
281380	5	0.6487426	6	n	1	BlockN_1	3	A	2	1	2
281380	6	0.6143939	6	n	1	BlockN_1	3	B	1	2	2
281380	9	0.8657059	6	b	0	BlockN_1	3	B	1	2	2
281380	11	0.5823537	6	n	1	BlockN_1	3	B	1	2	2
281380	12	0.5990107	6	n	1	BlockN_1	3	B	1	2	2
281380	13	0.6330693	6	n	1	BlockN_1	3	B	1	2	2
281380	15	0.5686049	6	n	1	BlockN_1	3	A	2	1	2
281380	16	0.8095467	6	n	1	BlockN_1	3	A	2	1	2
281380	17	0.7228461	6	n	1	BlockN_1	3	A	2	1	2
281380	19	0.536525	6	n	1	BlockN_1	3	A	2	1	2
281380	24	1.042527	6	b	0	BlockN_1	3	A	2	1	2
281380	26	0.7819352	6	n	0	BlockF_1	2	A	2	1	2
281380	27	0.8244545	6	b	1	BlockF_1	2	B	1	2	2
281380	28	0.7671354	6	b	1	BlockF_1	2	B	1	2	2
281380	29	0.6165712	6	b	1	BlockF_1	2	A	2	1	2
281380	30	0.615565	6	b	1	BlockF_1	2	B	1	2	2
281380	34	0.9017381	6	b	1	BlockF_1	2	A	2	1	2
281380	36	0.5120889	6	b	1	BlockF_1	2	A	2	1	2
281380	38	0.5325734	6	b	1	BlockF_1	2	B	1	2	2
281380	39	0.5514131	6	b	1	BlockF_1	2	B	1	2	2
281380	41	0.6562183	6	b	1	BlockF_1	2	B	1	2	2
281380	43	0.4290496	6	b	1	BlockF_1	2	B	1	2	2
281380	44	0.6273428	6	b	1	BlockF_1	2	A	2	1	2
281380	49	0.8448406	6	n	0	BlockF_1	2	A	2	1	2
281380	105	0.6141117	6	n	1	BlockN_1	3	A	2	1	2
281380	107	0.4396767	6	n	1	BlockN_1	3	B	1	2	2
281380	109	0.8901787	6	b	0	BlockN_1	3	B	1	2	2
281380	110	0.5423615	6	n	1	BlockN_1	3	A	2	1	2
281380	111	0.6402273	6	n	1	BlockN_1	3	A	2	1	2
281380	113	0.6154489	6	b	0	BlockN_1	3	B	1	2	2
281380	114	0.5669603	6	b	0	BlockN_1	3	A	2	1	2
281380	115	0.4080139	6	b	0	BlockN_1	3	B	1	2	2
281380	119	0.3593515	6	n	1	BlockN_1	3	A	2	1	2
281380	120	0.8004548	6	n	1	BlockN_1	3	B	1	2	2
281380	122	0.4453022	6	n	1	BlockN_1	3	A	2	1	2
281380	123	0.8039233	6	b	0	BlockN_1	3	B	1	2	2
281380	124	0.4902091	6	n	1	BlockN_1	3	B	1	2	2
281380	126	0.9584464	6	b	1	BlockF_1	2	A	2	1	2
281380	127	0.6235382	6	b	1	BlockF_1	2	B	1	2	2
281380	130	0.3940102	6	b	1	BlockF_1	2	B	1	2	2
281380	131	0.8337046	6	b	1	BlockF_1	2	A	2	1	2
281380	132	0.3289884	6	b	1	BlockF_1	2	B	1	2	2
281380	134	0.3628329	6	b	1	BlockF_1	2	A	2	1	2
281380	136	0.4901885	6	b	1	BlockF_1	2	B	1	2	2
281380	139	0.6573071	6	b	1	BlockF_1	2	A	2	1	2
281380	141	0.5029217	6	b	1	BlockF_1	2	A	2	1	2
281380	143	0.435173	6	n	0	BlockF_1	2	B	1	2	2
281380	144	0.69901	6	b	1	BlockF_1	2	A	2	1	2
281380	146	0.7692792	6	n	0	BlockF_1	2	B	1	2	2
281380	149	0.6190957	6	n	0	BlockF_1	2	B	1	2	2
281380	202	0.2782023	6	b	0	BlockN_1	3	A	2	1	2
281380	206	0.3775776	6	b	0	BlockN_1	3	B	1	2	2
281380	209	0.5124533	6	b	0	BlockN_1	3	B	1	2	2
281380	211	0.5732791	6	b	0	BlockN_1	3	B	1	2	2
281380	212	0.7175714	6	n	1	BlockN_1	3	B	1	2	2
281380	213	0.7297504	6	b	0	BlockN_1	3	B	1	2	2
281380	215	0.647955	6	n	1	BlockN_1	3	A	2	1	2
281380	216	0.3726265	6	n	1	BlockN_1	3	A	2	1	2
281380	217	0.4129412	6	n	1	BlockN_1	3	A	2	1	2
281380	219	0.7484887	6	n	1	BlockN_1	3	A	2	1	2
281380	224	0.6651504	6	n	1	BlockN_1	3	A	2	1	2
281380	226	0.5109844	6	n	0	BlockF_1	2	A	2	1	2
281380	227	0.448924	6	b	1	BlockF_1	2	B	1	2	2
281380	228	0.4069319	6	b	1	BlockF_1	2	B	1	2	2
281380	229	0.3822781	6	b	1	BlockF_1	2	A	2	1	2
281380	230	0.4086417	6	b	1	BlockF_1	2	B	1	2	2
281380	234	3.3484646	6	b	1	BlockF_1	2	A	2	1	2
281380	236	0.6322149	6	n	0	BlockF_1	2	A	2	1	2
281380	238	1.0014587	6	b	1	BlockF_1	2	B	1	2	2
281380	239	0.9211743	6	b	1	BlockF_1	2	B	1	2	2
281380	241	0.9443252	6	b	1	BlockF_1	2	B	1	2	2
281380	243	1.0071604	6	n	0	BlockF_1	2	A	2	1	2
281380	244	1.0711464	6	b	1	BlockF_1	2	A	2	1	2
281380	249	0.4704145	6	b	1	BlockF_1	2	A	2	1	2
281380	305	0.4619308	6	n	1	BlockN_1	3	A	2	1	2
281380	307	0.5169773	6	n	1	BlockN_1	3	B	1	2	2
281380	309	0.767949	6	b	0	BlockN_1	3	B	1	2	2
281380	310	0.9535333	6	b	0	BlockN_1	3	A	2	1	2
281380	311	0.4424717	6	n	1	BlockN_1	3	A	2	1	2
281380	313	0.6070219	6	n	1	BlockN_1	3	B	1	2	2
281380	314	0.3995204	6	n	1	BlockN_1	3	A	2	1	2
281380	315	0.4546934	6	n	1	BlockN_1	3	B	1	2	2
281380	319	0.7180227	6	n	1	BlockN_1	3	A	2	1	2
281380	320	0.3950641	6	n	1	BlockN_1	3	B	1	2	2
281380	322	0.5125483	6	n	1	BlockN_1	3	A	2	1	2
281380	323	0.578955	6	n	1	BlockN_1	3	B	1	2	2
281380	324	0.4685554	6	n	1	BlockN_1	3	B	1	2	2
281380	326	0.6983868	6	n	0	BlockF_1	2	A	2	1	2
281380	330	0.5158195	6	n	0	BlockF_1	2	B	1	2	2
281380	331	0.6795635	6	b	1	BlockF_1	2	A	2	1	2
281380	332	0.6286607	6	b	1	BlockF_1	2	B	1	2	2
281380	334	0.8997655	6	b	1	BlockF_1	2	A	2	1	2
281380	336	0.5578411	6	b	1	BlockF_1	2	B	1	2	2
281380	339	0.9735154	6	b	1	BlockF_1	2	A	2	1	2
281380	341	0.8224579	6	b	1	BlockF_1	2	A	2	1	2
281380	343	0.5979637	6	n	0	BlockF_1	2	B	1	2	2
281380	344	0.4382884	6	b	1	BlockF_1	2	A	2	1	2
281380	349	1.0386709	6	n	0	BlockF_1	2	B	1	2	2
291036	2	0.8631778	6	f	0	BlockFvN	1	A	2	1	2
291036	6	0.7077542	6	e	1	BlockFvN	1	B	1	2	2
291036	9	0.7256543	6	e	1	BlockFvN	1	B	1	2	2
291036	11	0.7455453	6	e	1	BlockFvN	1	B	1	2	2
291036	12	0.6601415	6	e	1	BlockFvN	1	B	1	2	2
291036	13	0.7385228	6	f	0	BlockFvN	1	B	1	2	2
291036	15	0.6713052	6	f	0	BlockFvN	1	A	2	1	2
291036	16	1.4851357	6	f	0	BlockFvN	1	A	2	1	2
291036	17	0.6990955	6	f	0	BlockFvN	1	A	2	1	2
291036	24	0.8702766	6	f	0	BlockFvN	1	A	2	1	2
291036	51	0.7556315	6	e	1	BlockFvN	1	B	1	2	2
291036	55	0.6774464	6	e	1	BlockFvN	1	A	2	1	2
291036	56	0.5947868	6	e	1	BlockFvN	1	B	1	2	2
291036	58	0.8310678	6	f	0	BlockFvN	1	B	1	2	2
291036	59	0.8240023	6	f	0	BlockFvN	1	A	2	1	2
291036	60	0.8456021	6	e	1	BlockFvN	1	B	1	2	2
291036	64	0.8127981	6	e	1	BlockFvN	1	A	2	1	2
291036	65	0.7231592	6	f	0	BlockFvN	1	A	2	1	2
291036	66	0.8952156	6	e	1	BlockFvN	1	A	2	1	2
291036	68	1.1811763	6	e	1	BlockFvN	1	A	2	1	2
291036	69	0.6471881	6	e	1	BlockFvN	1	B	1	2	2
291036	70	0.7400523	6	e	1	BlockFvN	1	B	1	2	2
291036	74	0.7311389	6	e	1	BlockFvN	1	A	2	1	2
291036	75	0.6936468	6	e	1	BlockFvN	1	B	1	2	2
291036	105	1.0915995	6	f	0	BlockFvN	1	A	2	1	2
291036	107	0.7064059	6	e	1	BlockFvN	1	B	1	2	2
291036	109	0.5938916	6	e	1	BlockFvN	1	B	1	2	2
291036	110	1.1383523	6	f	0	BlockFvN	1	A	2	1	2
291036	111	0.637783	6	e	1	BlockFvN	1	A	2	1	2
291036	113	0.7275277	6	e	1	BlockFvN	1	B	1	2	2
291036	114	0.7542559	6	e	1	BlockFvN	1	A	2	1	2
291036	115	0.6986176	6	f	0	BlockFvN	1	B	1	2	2
291036	119	0.8296317	6	e	1	BlockFvN	1	A	2	1	2
291036	120	0.581102	6	e	1	BlockFvN	1	B	1	2	2
291036	122	0.7421725	6	e	1	BlockFvN	1	A	2	1	2
291036	123	0.624291	6	e	1	BlockFvN	1	B	1	2	2
291036	124	0.6734654	6	e	1	BlockFvN	1	B	1	2	2
291036	151	0.6966566	6	e	1	BlockFvN	1	A	2	1	2
291036	153	0.5620153	6	e	1	BlockFvN	1	B	1	2	2
291036	154	0.8349143	6	e	1	BlockFvN	1	B	1	2	2
291036	155	1.3217375	6	e	1	BlockFvN	1	A	2	1	2
291036	157	0.7262644	6	e	1	BlockFvN	1	B	1	2	2
291036	159	0.7714881	6	e	1	BlockFvN	1	A	2	1	2
291036	162	0.5784486	6	e	1	BlockFvN	1	A	2	1	2
291036	163	0.6599328	6	e	1	BlockFvN	1	A	2	1	2
291036	166	0.5332062	6	e	1	BlockFvN	1	B	1	2	2
291036	168	1.8778039	6	e	1	BlockFvN	1	A	2	1	2
291036	170	0.6003124	6	f	0	BlockFvN	1	A	2	1	2
291036	173	0.9299827	6	e	1	BlockFvN	1	B	1	2	2
291036	175	1.1093126	6	e	1	BlockFvN	1	B	1	2	2
291036	2	0.776419	6	n	0	BlockF_1	2	A	2	1	2
291036	4	0.8107946	6	b	1	BlockF_1	2	B	1	2	2
291036	5	1.3476452	6	b	1	BlockF_1	2	A	2	1	2
291036	6	0.7255567	6	b	1	BlockF_1	2	B	1	2	2
291036	9	0.8099776	6	b	1	BlockF_1	2	B	1	2	2
291036	11	0.7606286	6	b	1	BlockF_1	2	B	1	2	2
291036	12	0.6597267	6	b	1	BlockF_1	2	B	1	2	2
291036	13	0.5607877	6	b	1	BlockF_1	2	B	1	2	2
291036	15	0.6913809	6	b	1	BlockF_1	2	A	2	1	2
291036	16	0.5586558	6	b	1	BlockF_1	2	A	2	1	2
291036	17	0.6888683	6	b	1	BlockF_1	2	A	2	1	2
291036	19	0.7259646	6	n	0	BlockF_1	2	A	2	1	2
291036	24	1.3442269	6	n	0	BlockF_1	2	A	2	1	2
291036	26	1.3225216	6	n	1	BlockN_1	3	A	2	1	2
291036	27	1.2953786	6	n	1	BlockN_1	3	B	1	2	2
291036	28	2.2283027	6	n	1	BlockN_1	3	B	1	2	2
291036	29	1.2998968	6	n	1	BlockN_1	3	A	2	1	2
291036	30	1.5435063	6	n	1	BlockN_1	3	B	1	2	2
291036	34	1.2266452	6	n	1	BlockN_1	3	A	2	1	2
291036	36	1.1216029	6	n	1	BlockN_1	3	A	2	1	2
291036	38	1.8540462	6	n	1	BlockN_1	3	B	1	2	2
291036	39	0.7954872	6	n	1	BlockN_1	3	B	1	2	2
291036	41	0.7124865	6	n	1	BlockN_1	3	B	1	2	2
291036	43	0.7078811	6	n	1	BlockN_1	3	B	1	2	2
291036	44	0.7348933	6	n	1	BlockN_1	3	A	2	1	2
291036	49	0.632439	6	b	0	BlockN_1	3	A	2	1	2
291036	105	0.5403682	6	b	1	BlockF_1	2	A	2	1	2
291036	107	0.6076299	6	b	1	BlockF_1	2	B	1	2	2
291036	109	0.4159361	6	b	1	BlockF_1	2	B	1	2	2
291036	110	1.0149761	6	n	0	BlockF_1	2	A	2	1	2
291036	111	0.4546088	6	b	1	BlockF_1	2	A	2	1	2
291036	113	0.9097675	6	b	1	BlockF_1	2	B	1	2	2
291036	114	0.993784	6	b	1	BlockF_1	2	A	2	1	2
291036	115	0.6114389	6	b	1	BlockF_1	2	B	1	2	2
291036	119	0.696162	6	b	1	BlockF_1	2	A	2	1	2
291036	120	0.5158707	6	b	1	BlockF_1	2	B	1	2	2
291036	122	0.4908482	6	b	1	BlockF_1	2	A	2	1	2
291036	123	0.5596338	6	b	1	BlockF_1	2	B	1	2	2
291036	124	0.5615934	6	b	1	BlockF_1	2	B	1	2	2
291036	126	0.549968	6	b	0	BlockN_1	3	A	2	1	2
291036	127	0.7111992	6	n	1	BlockN_1	3	B	1	2	2
291036	130	0.6342558	6	n	1	BlockN_1	3	B	1	2	2
291036	131	0.8734962	6	b	0	BlockN_1	3	A	2	1	2
291036	132	1.565461	6	b	0	BlockN_1	3	B	1	2	2
291036	134	0.9909054	6	n	1	BlockN_1	3	A	2	1	2
291036	136	0.6421713	6	n	1	BlockN_1	3	B	1	2	2
291036	139	0.8228578	6	n	1	BlockN_1	3	A	2	1	2
291036	141	0.6472622	6	b	0	BlockN_1	3	A	2	1	2
291036	143	1.3149126	6	n	1	BlockN_1	3	B	1	2	2
291036	144	1.8142737	6	n	1	BlockN_1	3	A	2	1	2
291036	146	0.5799253	6	n	1	BlockN_1	3	B	1	2	2
291036	149	0.5517507	6	n	1	BlockN_1	3	B	1	2	2
291036	202	0.9408561	6	b	1	BlockF_1	2	A	2	1	2
291036	206	1.0666947	6	b	1	BlockF_1	2	B	1	2	2
291036	209	0.8907235	6	b	1	BlockF_1	2	B	1	2	2
291036	211	0.7077332	6	b	1	BlockF_1	2	B	1	2	2
291036	212	0.5896566	6	b	1	BlockF_1	2	B	1	2	2
291036	213	0.621804	6	b	1	BlockF_1	2	B	1	2	2
291036	215	0.7296765	6	b	1	BlockF_1	2	A	2	1	2
291036	216	0.6923332	6	b	1	BlockF_1	2	A	2	1	2
291036	217	0.5451062	6	b	1	BlockF_1	2	A	2	1	2
291036	219	0.6108516	6	n	0	BlockF_1	2	A	2	1	2
291036	224	0.6280222	6	n	0	BlockF_1	2	A	2	1	2
291036	226	0.6325368	6	n	1	BlockN_1	3	A	2	1	2
291036	227	1.3979783	6	n	1	BlockN_1	3	B	1	2	2
291036	228	0.5190352	6	n	1	BlockN_1	3	B	1	2	2
291036	229	0.6172279	6	n	1	BlockN_1	3	A	2	1	2
291036	230	0.5200737	6	n	1	BlockN_1	3	B	1	2	2
291036	234	0.8012774	6	b	0	BlockN_1	3	A	2	1	2
291036	236	0.6117441	6	n	1	BlockN_1	3	A	2	1	2
291036	238	0.6581893	6	n	1	BlockN_1	3	B	1	2	2
291036	239	1.9349935	6	n	1	BlockN_1	3	B	1	2	2
291036	241	0.5356316	6	n	1	BlockN_1	3	B	1	2	2
291036	243	1.1150943	6	n	1	BlockN_1	3	A	2	1	2
291036	244	0.7906577	6	n	1	BlockN_1	3	A	2	1	2
291036	249	1.1696017	6	b	0	BlockN_1	3	A	2	1	2
291036	305	0.7128712	6	b	1	BlockF_1	2	A	2	1	2
291036	307	0.5153691	6	b	1	BlockF_1	2	B	1	2	2
291036	309	0.4416659	6	b	1	BlockF_1	2	B	1	2	2
291036	310	0.6557722	6	n	0	BlockF_1	2	A	2	1	2
291036	311	0.4296497	6	b	1	BlockF_1	2	A	2	1	2
291036	313	0.6351773	6	b	1	BlockF_1	2	B	1	2	2
291036	314	0.6651943	6	b	1	BlockF_1	2	A	2	1	2
291036	315	0.6954322	6	b	1	BlockF_1	2	B	1	2	2
291036	319	0.5506414	6	b	1	BlockF_1	2	A	2	1	2
291036	320	0.5216694	6	b	1	BlockF_1	2	B	1	2	2
291036	322	1.7041477	6	n	0	BlockF_1	2	A	2	1	2
291036	323	0.6522951	6	b	1	BlockF_1	2	B	1	2	2
291036	324	0.4417657	6	b	1	BlockF_1	2	B	1	2	2
291036	326	0.7216428	6	b	0	BlockN_1	3	A	2	1	2
291036	330	0.667256	6	n	1	BlockN_1	3	B	1	2	2
291036	331	0.5850259	6	n	1	BlockN_1	3	A	2	1	2
291036	332	0.5545848	6	b	0	BlockN_1	3	B	1	2	2
291036	334	1.3564594	6	n	1	BlockN_1	3	A	2	1	2
291036	336	0.6350803	6	n	1	BlockN_1	3	B	1	2	2
291036	339	0.5231091	6	n	1	BlockN_1	3	A	2	1	2
291036	341	0.5239661	6	b	0	BlockN_1	3	A	2	1	2
291036	343	1.2958703	6	n	1	BlockN_1	3	B	1	2	2
291036	344	0.627028	6	n	1	BlockN_1	3	A	2	1	2
291036	349	0.5710978	6	n	1	BlockN_1	3	B	1	2	2
295285	2	0.8181092	6	f	0	BlockFvN	1	A	2	1	2
295285	6	0.583002	6	e	1	BlockFvN	1	B	1	2	2
295285	9	0.448427	6	e	1	BlockFvN	1	B	1	2	2
295285	11	0.6801758	6	e	1	BlockFvN	1	B	1	2	2
295285	12	0.564961	6	e	1	BlockFvN	1	B	1	2	2
295285	13	0.5007074	6	e	1	BlockFvN	1	B	1	2	2
295285	15	0.8107421	6	f	0	BlockFvN	1	A	2	1	2
295285	16	1.8439991	6	e	1	BlockFvN	1	A	2	1	2
295285	17	0.5775617	6	e	1	BlockFvN	1	A	2	1	2
295285	24	1.7673939	6	f	0	BlockFvN	1	A	2	1	2
295285	51	0.574618	6	e	1	BlockFvN	1	B	1	2	2
295285	55	0.5157682	6	e	1	BlockFvN	1	A	2	1	2
295285	56	0.5181561	6	e	1	BlockFvN	1	B	1	2	2
295285	58	1.3872442	6	e	1	BlockFvN	1	B	1	2	2
295285	59	0.6678867	6	e	1	BlockFvN	1	A	2	1	2
295285	60	0.5539466	6	e	1	BlockFvN	1	B	1	2	2
295285	64	0.650156	6	f	0	BlockFvN	1	A	2	1	2
295285	65	0.647537	6	f	0	BlockFvN	1	A	2	1	2
295285	66	0.7084196	6	e	1	BlockFvN	1	A	2	1	2
295285	68	0.5321797	6	f	0	BlockFvN	1	A	2	1	2
295285	69	0.5980105	6	e	1	BlockFvN	1	B	1	2	2
295285	70	0.8397542	6	f	0	BlockFvN	1	B	1	2	2
295285	74	0.8033903	6	e	1	BlockFvN	1	A	2	1	2
295285	75	0.7157767	6	e	1	BlockFvN	1	B	1	2	2
295285	105	0.5822323	6	f	0	BlockFvN	1	A	2	1	2
295285	107	0.4571881	6	e	1	BlockFvN	1	B	1	2	2
295285	109	0.6265821	6	e	1	BlockFvN	1	B	1	2	2
295285	110	0.5932524	6	f	0	BlockFvN	1	A	2	1	2
295285	111	0.6248288	6	e	1	BlockFvN	1	A	2	1	2
295285	113	0.6466128	6	e	1	BlockFvN	1	B	1	2	2
295285	114	0.8042747	6	f	0	BlockFvN	1	A	2	1	2
295285	115	0.5076799	6	e	1	BlockFvN	1	B	1	2	2
295285	119	0.7427605	6	f	0	BlockFvN	1	A	2	1	2
295285	120	0.5469479	6	e	1	BlockFvN	1	B	1	2	2
295285	122	0.5968407	6	f	0	BlockFvN	1	A	2	1	2
295285	123	0.565672	6	e	1	BlockFvN	1	B	1	2	2
295285	124	0.8860202	6	e	1	BlockFvN	1	B	1	2	2
295285	151	0.8589998	6	f	0	BlockFvN	1	A	2	1	2
295285	153	0.4462768	6	e	1	BlockFvN	1	B	1	2	2
295285	154	0.4531525	6	e	1	BlockFvN	1	B	1	2	2
295285	155	0.4421399	6	f	0	BlockFvN	1	A	2	1	2
295285	157	0.5456017	6	e	1	BlockFvN	1	B	1	2	2
295285	159	0.7109875	6	e	1	BlockFvN	1	A	2	1	2
295285	162	0.6472909	6	f	0	BlockFvN	1	A	2	1	2
295285	163	0.5667234	6	e	1	BlockFvN	1	A	2	1	2
295285	166	0.8151155	6	f	0	BlockFvN	1	B	1	2	2
295285	168	0.8737714	6	f	0	BlockFvN	1	A	2	1	2
295285	170	0.7373637	6	f	0	BlockFvN	1	A	2	1	2
295285	173	0.5196677	6	e	1	BlockFvN	1	B	1	2	2
295285	175	0.5158665	6	e	1	BlockFvN	1	B	1	2	2
295285	2	0.7614107	6	b	1	BlockF_1	2	A	2	1	2
295285	4	0.8704662	6	b	1	BlockF_1	2	B	1	2	2
295285	5	0.6194968	6	b	1	BlockF_1	2	A	2	1	2
295285	6	0.5064202	6	b	1	BlockF_1	2	B	1	2	2
295285	9	0.6679573	6	b	1	BlockF_1	2	B	1	2	2
295285	11	0.4729041	6	b	1	BlockF_1	2	B	1	2	2
295285	12	0.6546752	6	b	1	BlockF_1	2	B	1	2	2
295285	13	0.6190273	6	b	1	BlockF_1	2	B	1	2	2
295285	15	0.6844445	6	n	0	BlockF_1	2	A	2	1	2
295285	16	0.5371949	6	b	1	BlockF_1	2	A	2	1	2
295285	17	0.601936	6	b	1	BlockF_1	2	A	2	1	2
295285	19	0.5242278	6	n	0	BlockF_1	2	A	2	1	2
295285	24	0.5787895	6	n	0	BlockF_1	2	A	2	1	2
295285	26	1.0888715	6	n	1	BlockN_1	3	A	2	1	2
295285	27	0.6385988	6	n	1	BlockN_1	3	B	1	2	2
295285	28	0.5741931	6	n	1	BlockN_1	3	B	1	2	2
295285	29	0.7685918	6	n	1	BlockN_1	3	A	2	1	2
295285	30	0.441213	6	n	1	BlockN_1	3	B	1	2	2
295285	34	1.2549051	6	n	1	BlockN_1	3	A	2	1	2
295285	36	2.7635044	6	n	1	BlockN_1	3	A	2	1	2
295285	38	1.6569525	6	n	1	BlockN_1	3	B	1	2	2
295285	39	0.5273071	6	n	1	BlockN_1	3	B	1	2	2
295285	41	0.4388909	6	n	1	BlockN_1	3	B	1	2	2
295285	43	0.5613927	6	n	1	BlockN_1	3	B	1	2	2
295285	44	1.4581147	6	b	0	BlockN_1	3	A	2	1	2
295285	49	0.7536533	6	b	0	BlockN_1	3	A	2	1	2
295285	105	0.5281722	6	n	0	BlockF_1	2	A	2	1	2
295285	107	0.4517567	6	n	0	BlockF_1	2	B	1	2	2
295285	109	0.4425745	6	b	1	BlockF_1	2	B	1	2	2
295285	110	0.7193997	6	n	0	BlockF_1	2	A	2	1	2
295285	111	0.8911482	6	b	1	BlockF_1	2	A	2	1	2
295285	113	0.5455927	6	b	1	BlockF_1	2	B	1	2	2
295285	114	0.4837364	6	n	0	BlockF_1	2	A	2	1	2
295285	115	0.5347599	6	b	1	BlockF_1	2	B	1	2	2
295285	119	0.6935875	6	n	0	BlockF_1	2	A	2	1	2
295285	120	0.5296351	6	b	1	BlockF_1	2	B	1	2	2
295285	122	0.6672994	6	b	1	BlockF_1	2	A	2	1	2
295285	123	0.6324522	6	b	1	BlockF_1	2	B	1	2	2
295285	124	0.8065589	6	b	1	BlockF_1	2	B	1	2	2
295285	126	0.5703759	6	n	1	BlockN_1	3	A	2	1	2
295285	127	0.6188767	6	n	1	BlockN_1	3	B	1	2	2
295285	130	0.4821592	6	n	1	BlockN_1	3	B	1	2	2
295285	131	1.0150393	6	b	0	BlockN_1	3	A	2	1	2
295285	132	1.4963632	6	b	0	BlockN_1	3	B	1	2	2
295285	134	1.6231025	6	b	0	BlockN_1	3	A	2	1	2
