"subj_idx","trial","rt","stim_frame","key_response","response","blockname","task","stim_file","HSF_emo","LSF_emo","congruence"
"114192",2,0.984893199999988,6,"e",1,"BlockFvN",1,"A",2,1,2
"114192",6,0.926056400000107,6,"e",1,"BlockFvN",1,"B",1,2,2
"114192",9,0.854008499999964,6,"e",1,"BlockFvN",1,"B",1,2,2
"114192",11,0.881857899999886,6,"e",1,"BlockFvN",1,"B",1,2,2
"114192",12,0.918875200000002,6,"e",1,"BlockFvN",1,"B",1,2,2
"114192",13,0.906791200000043,6,"e",1,"BlockFvN",1,"B",1,2,2
"114192",15,0.9491237000002,6,"f",0,"BlockFvN",1,"A",2,1,2
"114192",16,0.839553299999807,6,"e",1,"BlockFvN",1,"A",2,1,2
"114192",17,1.00660280000011,6,"f",0,"BlockFvN",1,"A",2,1,2
"114192",24,0.855257600000186,6,"f",0,"BlockFvN",1,"A",2,1,2
"114192",51,0.987200999999914,6,"e",1,"BlockFvN",1,"B",1,2,2
"114192",55,0.612310800000159,6,"e",1,"BlockFvN",1,"A",2,1,2
"114192",56,0.659489099999973,6,"e",1,"BlockFvN",1,"B",1,2,2
"114192",58,0.945764399999916,6,"e",1,"BlockFvN",1,"B",1,2,2
"114192",59,0.932932900000196,6,"f",0,"BlockFvN",1,"A",2,1,2
"114192",60,0.966691499999797,6,"e",1,"BlockFvN",1,"B",1,2,2
"114192",64,0.680368100000123,6,"e",1,"BlockFvN",1,"A",2,1,2
"114192",65,0.854545200000302,6,"f",0,"BlockFvN",1,"A",2,1,2
"114192",66,0.684387199999946,6,"f",0,"BlockFvN",1,"A",2,1,2
"114192",68,0.600506199999927,6,"e",1,"BlockFvN",1,"A",2,1,2
"114192",69,0.680544499999996,6,"e",1,"BlockFvN",1,"B",1,2,2
"114192",70,0.708870499999648,6,"e",1,"BlockFvN",1,"B",1,2,2
"114192",74,0.668510800000149,6,"e",1,"BlockFvN",1,"A",2,1,2
"114192",75,0.648778199999924,6,"e",1,"BlockFvN",1,"B",1,2,2
"114192",105,0.76758110000037,6,"e",1,"BlockFvN",1,"A",2,1,2
"114192",107,0.751755700000103,6,"e",1,"BlockFvN",1,"B",1,2,2
"114192",109,0.746023299999706,6,"e",1,"BlockFvN",1,"B",1,2,2
"114192",110,0.963991300000089,6,"f",0,"BlockFvN",1,"A",2,1,2
"114192",111,0.756776200000331,6,"e",1,"BlockFvN",1,"A",2,1,2
"114192",113,0.543745499999659,6,"e",1,"BlockFvN",1,"B",1,2,2
"114192",114,0.97737189999998,6,"e",1,"BlockFvN",1,"A",2,1,2
"114192",115,0.690217200000006,6,"e",1,"BlockFvN",1,"B",1,2,2
"114192",119,0.953297600000042,6,"f",0,"BlockFvN",1,"A",2,1,2
"114192",120,0.54014670000015,6,"e",1,"BlockFvN",1,"B",1,2,2
"114192",122,0.943722600000001,6,"f",0,"BlockFvN",1,"A",2,1,2
"114192",123,0.562806199999613,6,"e",1,"BlockFvN",1,"B",1,2,2
"114192",124,0.594800500000019,6,"e",1,"BlockFvN",1,"B",1,2,2
"114192",151,0.894864200000029,6,"f",0,"BlockFvN",1,"A",2,1,2
"114192",153,0.763349400000152,6,"e",1,"BlockFvN",1,"B",1,2,2
"114192",154,0.678139499999816,6,"e",1,"BlockFvN",1,"B",1,2,2
"114192",155,0.898857700000008,6,"e",1,"BlockFvN",1,"A",2,1,2
"114192",157,0.812154100000043,6,"e",1,"BlockFvN",1,"B",1,2,2
"114192",159,0.628563499999927,6,"e",1,"BlockFvN",1,"A",2,1,2
"114192",162,0.997065199999724,6,"f",0,"BlockFvN",1,"A",2,1,2
"114192",163,0.742419199999858,6,"e",1,"BlockFvN",1,"A",2,1,2
"114192",166,1.00279779999983,6,"e",1,"BlockFvN",1,"B",1,2,2
"114192",168,0.740434499999992,6,"e",1,"BlockFvN",1,"A",2,1,2
"114192",170,0.878829700000097,6,"f",0,"BlockFvN",1,"A",2,1,2
"114192",173,0.591004800000064,6,"e",1,"BlockFvN",1,"B",1,2,2
"114192",175,0.591997699999865,6,"e",1,"BlockFvN",1,"B",1,2,2
"114192",2,1.48161919999984,6,"n",1,"BlockN_1",3,"A",2,1,2
"114192",4,1.13123720000021,6,"n",1,"BlockN_1",3,"B",1,2,2
"114192",5,0.77418839999973,6,"b",0,"BlockN_1",3,"A",2,1,2
"114192",6,2.55879080000022,6,"n",1,"BlockN_1",3,"B",1,2,2
"114192",9,1.03815149999991,6,"n",1,"BlockN_1",3,"B",1,2,2
"114192",11,0.917569100000037,6,"n",1,"BlockN_1",3,"B",1,2,2
"114192",12,1.14527249999992,6,"n",1,"BlockN_1",3,"B",1,2,2
"114192",13,0.916934700000184,6,"n",1,"BlockN_1",3,"B",1,2,2
"114192",15,0.849731199999951,6,"b",0,"BlockN_1",3,"A",2,1,2
"114192",16,0.80719979999958,6,"n",1,"BlockN_1",3,"A",2,1,2
"114192",17,1.72603920000029,6,"b",0,"BlockN_1",3,"A",2,1,2
"114192",19,1.01529260000007,6,"b",0,"BlockN_1",3,"A",2,1,2
"114192",24,0.700249999999869,6,"b",0,"BlockN_1",3,"A",2,1,2
"114192",26,1.1929141999999,6,"n",0,"BlockF_1",2,"A",2,1,2
"114192",27,0.979798800000026,6,"b",1,"BlockF_1",2,"B",1,2,2
"114192",28,0.803234199999679,6,"b",1,"BlockF_1",2,"B",1,2,2
"114192",29,0.732305099999849,6,"b",1,"BlockF_1",2,"A",2,1,2
"114192",30,0.695053500000085,6,"b",1,"BlockF_1",2,"B",1,2,2
"114192",34,0.758800600000086,6,"n",0,"BlockF_1",2,"A",2,1,2
"114192",36,0.655019700000139,6,"b",1,"BlockF_1",2,"A",2,1,2
"114192",38,0.599007900000288,6,"b",1,"BlockF_1",2,"B",1,2,2
"114192",39,0.758571200000006,6,"b",1,"BlockF_1",2,"B",1,2,2
"114192",41,0.624080399999912,6,"b",1,"BlockF_1",2,"B",1,2,2
"114192",43,0.641662399999859,6,"b",1,"BlockF_1",2,"B",1,2,2
"114192",44,0.687735299999986,6,"n",0,"BlockF_1",2,"A",2,1,2
"114192",49,0.782300299999861,6,"n",0,"BlockF_1",2,"A",2,1,2
"114192",105,0.701733800000056,6,"n",1,"BlockN_1",3,"A",2,1,2
"114192",107,0.88480729999992,6,"b",0,"BlockN_1",3,"B",1,2,2
"114192",109,1.94233159999976,6,"n",1,"BlockN_1",3,"B",1,2,2
"114192",110,0.83475159999989,6,"b",0,"BlockN_1",3,"A",2,1,2
"114192",111,0.760578800000076,6,"n",1,"BlockN_1",3,"A",2,1,2
"114192",113,0.626624699999866,6,"n",1,"BlockN_1",3,"B",1,2,2
"114192",114,0.769904100000076,6,"b",0,"BlockN_1",3,"A",2,1,2
"114192",115,0.603525600000012,6,"n",1,"BlockN_1",3,"B",1,2,2
"114192",119,0.804268599999887,6,"b",0,"BlockN_1",3,"A",2,1,2
"114192",120,0.635754000000361,6,"n",1,"BlockN_1",3,"B",1,2,2
"114192",122,0.844812499999989,6,"n",1,"BlockN_1",3,"A",2,1,2
"114192",123,0.852119200000288,6,"n",1,"BlockN_1",3,"B",1,2,2
"114192",124,1.11296219999986,6,"n",1,"BlockN_1",3,"B",1,2,2
"114192",126,1.69920699999966,6,"n",0,"BlockF_1",2,"A",2,1,2
"114192",127,0.808831100000134,6,"b",1,"BlockF_1",2,"B",1,2,2
"114192",130,0.759519799999907,6,"b",1,"BlockF_1",2,"B",1,2,2
"114192",131,0.689080499999818,6,"b",1,"BlockF_1",2,"A",2,1,2
"114192",132,0.796338399999968,6,"b",1,"BlockF_1",2,"B",1,2,2
"114192",134,0.801502699999673,6,"b",1,"BlockF_1",2,"A",2,1,2
"114192",136,0.604207799999585,6,"b",1,"BlockF_1",2,"B",1,2,2
"114192",139,1.67371300000013,6,"b",1,"BlockF_1",2,"A",2,1,2
"114192",141,0.822417200000018,6,"n",0,"BlockF_1",2,"A",2,1,2
"114192",143,0.555179500000122,6,"b",1,"BlockF_1",2,"B",1,2,2
"114192",144,0.572651899999983,6,"b",1,"BlockF_1",2,"A",2,1,2
"114192",146,0.591780700000072,6,"b",1,"BlockF_1",2,"B",1,2,2
"114192",149,0.883375899999919,6,"b",1,"BlockF_1",2,"B",1,2,2
"114192",202,0.72933330000069,6,"n",1,"BlockN_1",3,"A",2,1,2
"114192",206,0.739076199999545,6,"n",1,"BlockN_1",3,"B",1,2,2
"114192",209,0.831679099999747,6,"n",1,"BlockN_1",3,"B",1,2,2
"114192",211,0.845023099999707,6,"n",1,"BlockN_1",3,"B",1,2,2
"114192",212,0.803576499999508,6,"n",1,"BlockN_1",3,"B",1,2,2
"114192",213,0.860458699999981,6,"n",1,"BlockN_1",3,"B",1,2,2
"114192",215,1.02800919999936,6,"b",0,"BlockN_1",3,"A",2,1,2
"114192",216,0.931729599999926,6,"n",1,"BlockN_1",3,"A",2,1,2
"114192",217,1.59063750000041,6,"n",1,"BlockN_1",3,"A",2,1,2
"114192",219,0.812338900000213,6,"b",0,"BlockN_1",3,"A",2,1,2
"114192",224,2.52966079999987,6,"b",0,"BlockN_1",3,"A",2,1,2
"114192",226,0.813120499999968,6,"n",0,"BlockF_1",2,"A",2,1,2
"114192",227,0.771825300000273,6,"b",1,"BlockF_1",2,"B",1,2,2
"114192",228,0.621064500000102,6,"b",1,"BlockF_1",2,"B",1,2,2
"114192",229,0.71640380000008,6,"b",1,"BlockF_1",2,"A",2,1,2
"114192",230,0.583612700000231,6,"b",1,"BlockF_1",2,"B",1,2,2
"114192",234,1.33461099999931,6,"n",0,"BlockF_1",2,"A",2,1,2
"114192",236,0.611597699999948,6,"b",1,"BlockF_1",2,"A",2,1,2
"114192",238,3.08232150000003,6,"b",1,"BlockF_1",2,"B",1,2,2
"114192",239,0.793665899999723,6,"b",1,"BlockF_1",2,"B",1,2,2
"114192",241,3.26249399999961,6,"b",1,"BlockF_1",2,"B",1,2,2
"114192",243,0.781875499999842,6,"b",1,"BlockF_1",2,"A",2,1,2
"114192",244,0.99902529999963,6,"n",0,"BlockF_1",2,"A",2,1,2
"114192",249,1.07452439999997,6,"n",0,"BlockF_1",2,"A",2,1,2
"114192",305,1.49400770000011,6,"n",1,"BlockN_1",3,"A",2,1,2
"114192",307,0.829187499999534,6,"n",1,"BlockN_1",3,"B",1,2,2
"114192",309,0.944838200000049,6,"n",1,"BlockN_1",3,"B",1,2,2
"114192",310,1.0766778999996,6,"b",0,"BlockN_1",3,"A",2,1,2
"114192",311,0.865154699999948,6,"n",1,"BlockN_1",3,"A",2,1,2
"114192",313,0.945012000000133,6,"n",1,"BlockN_1",3,"B",1,2,2
"114192",314,0.977615400000104,6,"b",0,"BlockN_1",3,"A",2,1,2
"114192",315,1.05982070000027,6,"n",1,"BlockN_1",3,"B",1,2,2
"114192",319,1.06438389999948,6,"b",0,"BlockN_1",3,"A",2,1,2
"114192",320,1.3343334000001,6,"n",1,"BlockN_1",3,"B",1,2,2
"114192",322,0.758574299999964,6,"b",0,"BlockN_1",3,"A",2,1,2
"114192",323,1.49002070000006,6,"n",1,"BlockN_1",3,"B",1,2,2
"114192",324,3.54933600000004,6,"n",1,"BlockN_1",3,"B",1,2,2
"114192",326,0.811138399999436,6,"n",0,"BlockF_1",2,"A",2,1,2
"114192",330,0.66803069999969,6,"b",1,"BlockF_1",2,"B",1,2,2
"114192",331,0.745381200000338,6,"b",1,"BlockF_1",2,"A",2,1,2
"114192",332,0.995082800000091,6,"b",1,"BlockF_1",2,"B",1,2,2
"114192",334,0.900182499999573,6,"n",0,"BlockF_1",2,"A",2,1,2
"114192",336,0.503091900000072,6,"b",1,"BlockF_1",2,"B",1,2,2
"114192",339,1.08348279999973,6,"b",1,"BlockF_1",2,"A",2,1,2
"114192",341,0.740971700000046,6,"n",0,"BlockF_1",2,"A",2,1,2
"114192",343,0.58957939999982,6,"b",1,"BlockF_1",2,"B",1,2,2
"114192",344,0.606051699999625,6,"b",1,"BlockF_1",2,"A",2,1,2
"114192",349,0.671616099999483,6,"b",1,"BlockF_1",2,"B",1,2,2
"136867",2,1.10423929999979,6,"e",1,"BlockFvN",1,"A",2,1,2
"136867",6,0.782532399999582,6,"e",1,"BlockFvN",1,"B",1,2,2
"136867",9,1.07225309999967,6,"f",0,"BlockFvN",1,"B",1,2,2
"136867",11,0.915151499999865,6,"f",0,"BlockFvN",1,"B",1,2,2
"136867",12,0.998375499999838,6,"e",1,"BlockFvN",1,"B",1,2,2
"136867",13,1.03148450000026,6,"f",0,"BlockFvN",1,"B",1,2,2
"136867",15,0.937178800000311,6,"f",0,"BlockFvN",1,"A",2,1,2
"136867",16,1.21158849999983,6,"f",0,"BlockFvN",1,"A",2,1,2
"136867",17,1.10764559999961,6,"f",0,"BlockFvN",1,"A",2,1,2
"136867",24,1.08343800000011,6,"f",0,"BlockFvN",1,"A",2,1,2
"136867",51,1.04001210000024,6,"e",1,"BlockFvN",1,"B",1,2,2
"136867",55,0.977570999999898,6,"f",0,"BlockFvN",1,"A",2,1,2
"136867",56,1.0110480999997,6,"e",1,"BlockFvN",1,"B",1,2,2
"136867",58,1.17051009999977,6,"f",0,"BlockFvN",1,"B",1,2,2
"136867",59,1.02059199999985,6,"e",1,"BlockFvN",1,"A",2,1,2
"136867",60,0.939760000000206,6,"e",1,"BlockFvN",1,"B",1,2,2
"136867",64,1.19167000000016,6,"f",0,"BlockFvN",1,"A",2,1,2
"136867",65,1.05563110000003,6,"f",0,"BlockFvN",1,"A",2,1,2
"136867",66,1.67805560000033,6,"f",0,"BlockFvN",1,"A",2,1,2
"136867",68,1.78574600000002,6,"e",1,"BlockFvN",1,"A",2,1,2
"136867",69,1.14775539999982,6,"e",1,"BlockFvN",1,"B",1,2,2
"136867",70,1.43016110000008,6,"f",0,"BlockFvN",1,"B",1,2,2
"136867",74,1.09675479999987,6,"e",1,"BlockFvN",1,"A",2,1,2
"136867",75,1.02906140000005,6,"e",1,"BlockFvN",1,"B",1,2,2
"136867",105,1.03853170000002,6,"e",1,"BlockFvN",1,"A",2,1,2
"136867",107,1.18280289999984,6,"e",1,"BlockFvN",1,"B",1,2,2
"136867",109,0.845028499999898,6,"e",1,"BlockFvN",1,"B",1,2,2
"136867",110,0.818698899999617,6,"f",0,"BlockFvN",1,"A",2,1,2
"136867",111,0.873789700000088,6,"e",1,"BlockFvN",1,"A",2,1,2
"136867",113,1.10902960000021,6,"f",0,"BlockFvN",1,"B",1,2,2
"136867",114,1.48792660000026,6,"f",0,"BlockFvN",1,"A",2,1,2
"136867",115,1.62864820000004,6,"f",0,"BlockFvN",1,"B",1,2,2
"136867",119,0.876965599999949,6,"f",0,"BlockFvN",1,"A",2,1,2
"136867",120,0.850157500000023,6,"e",1,"BlockFvN",1,"B",1,2,2
"136867",122,0.841768199999933,6,"f",0,"BlockFvN",1,"A",2,1,2
"136867",123,0.800711600000341,6,"e",1,"BlockFvN",1,"B",1,2,2
"136867",124,0.824623099999826,6,"f",0,"BlockFvN",1,"B",1,2,2
"136867",151,1.09009379999998,6,"f",0,"BlockFvN",1,"A",2,1,2
"136867",153,0.772053000000142,6,"e",1,"BlockFvN",1,"B",1,2,2
"136867",154,0.701986900000065,6,"e",1,"BlockFvN",1,"B",1,2,2
"136867",155,0.93671519999998,6,"f",0,"BlockFvN",1,"A",2,1,2
"136867",157,0.818935899999815,6,"e",1,"BlockFvN",1,"B",1,2,2
"136867",159,1.1247527999999,6,"f",0,"BlockFvN",1,"A",2,1,2
"136867",162,0.84481199999982,6,"f",0,"BlockFvN",1,"A",2,1,2
"136867",163,1.04148420000001,6,"f",0,"BlockFvN",1,"A",2,1,2
"136867",166,0.828217900000254,6,"e",1,"BlockFvN",1,"B",1,2,2
"136867",168,0.988916399999653,6,"e",1,"BlockFvN",1,"A",2,1,2
"136867",170,0.8347504999997,6,"f",0,"BlockFvN",1,"A",2,1,2
"136867",173,0.808084100000087,6,"e",1,"BlockFvN",1,"B",1,2,2
"136867",175,0.794106900000315,6,"e",1,"BlockFvN",1,"B",1,2,2
"136867",2,0.980147799999941,6,"b",1,"BlockF_1",2,"A",2,1,2
"136867",4,0.959533900000224,6,"n",0,"BlockF_1",2,"B",1,2,2
"136867",5,0.848671499999909,6,"b",1,"BlockF_1",2,"A",2,1,2
"136867",6,0.870717499999955,6,"b",1,"BlockF_1",2,"B",1,2,2
"136867",9,0.791513599999689,6,"b",1,"BlockF_1",2,"B",1,2,2
"136867",11,0.77771279999979,6,"n",0,"BlockF_1",2,"B",1,2,2
"136867",12,0.755223199999818,6,"b",1,"BlockF_1",2,"B",1,2,2
"136867",13,0.813929800000096,6,"n",0,"BlockF_1",2,"B",1,2,2
"136867",15,0.799365999999736,6,"n",0,"BlockF_1",2,"A",2,1,2
"136867",16,1.09530589999986,6,"b",1,"BlockF_1",2,"A",2,1,2
"136867",17,0.722945800000161,6,"n",0,"BlockF_1",2,"A",2,1,2
"136867",19,0.807877100000042,6,"n",0,"BlockF_1",2,"A",2,1,2
"136867",24,0.90806769999972,6,"n",0,"BlockF_1",2,"A",2,1,2
"136867",26,1.22016720000011,6,"b",0,"BlockN_1",3,"A",2,1,2
"136867",27,1.03398729999981,6,"n",1,"BlockN_1",3,"B",1,2,2
"136867",28,1.32112280000001,6,"n",1,"BlockN_1",3,"B",1,2,2
"136867",29,1.22902079999994,6,"b",0,"BlockN_1",3,"A",2,1,2
"136867",30,1.49269929999991,6,"b",0,"BlockN_1",3,"B",1,2,2
"136867",34,1.11484710000013,6,"b",0,"BlockN_1",3,"A",2,1,2
"136867",36,1.36022469999989,6,"n",1,"BlockN_1",3,"A",2,1,2
"136867",38,1.38277689999995,6,"n",1,"BlockN_1",3,"B",1,2,2
"136867",39,1.60853120000002,6,"b",0,"BlockN_1",3,"B",1,2,2
"136867",41,1.21097280000004,6,"b",0,"BlockN_1",3,"B",1,2,2
"136867",43,1.53763299999991,6,"b",0,"BlockN_1",3,"B",1,2,2
"136867",44,1.48452989999987,6,"b",0,"BlockN_1",3,"A",2,1,2
"136867",49,1.07538019999993,6,"b",0,"BlockN_1",3,"A",2,1,2
"136867",105,1.05137250000007,6,"n",0,"BlockF_1",2,"A",2,1,2
"136867",107,0.752952300000288,6,"n",0,"BlockF_1",2,"B",1,2,2
"136867",109,0.689151300000049,6,"b",1,"BlockF_1",2,"B",1,2,2
"136867",110,0.638399800000116,6,"n",0,"BlockF_1",2,"A",2,1,2
"136867",111,0.891638600000078,6,"b",1,"BlockF_1",2,"A",2,1,2
"136867",113,0.97842430000037,6,"n",0,"BlockF_1",2,"B",1,2,2
"136867",114,0.914698200000203,6,"n",0,"BlockF_1",2,"A",2,1,2
"136867",115,1.20664099999976,6,"n",0,"BlockF_1",2,"B",1,2,2
"136867",119,0.675986199999898,6,"n",0,"BlockF_1",2,"A",2,1,2
"136867",120,0.895141500000136,6,"b",1,"BlockF_1",2,"B",1,2,2
"136867",122,0.902713999999833,6,"n",0,"BlockF_1",2,"A",2,1,2
"136867",123,1.05124100000012,6,"b",1,"BlockF_1",2,"B",1,2,2
"136867",124,0.890146800000366,6,"n",0,"BlockF_1",2,"B",1,2,2
"136867",126,0.983263300000544,6,"b",0,"BlockN_1",3,"A",2,1,2
"136867",127,0.743887100000393,6,"n",1,"BlockN_1",3,"B",1,2,2
"136867",130,0.783093999999437,6,"n",1,"BlockN_1",3,"B",1,2,2
"136867",131,0.72686320000048,6,"n",1,"BlockN_1",3,"A",2,1,2
"136867",132,0.59523259999969,6,"b",0,"BlockN_1",3,"B",1,2,2
"136867",134,0.818212799999856,6,"b",0,"BlockN_1",3,"A",2,1,2
"136867",136,1.13863729999957,6,"n",1,"BlockN_1",3,"B",1,2,2
"136867",139,1.03363139999965,6,"b",0,"BlockN_1",3,"A",2,1,2
"136867",141,0.686251300000549,6,"b",0,"BlockN_1",3,"A",2,1,2
"136867",143,1.14521690000038,6,"n",1,"BlockN_1",3,"B",1,2,2
"136867",144,1.01073420000012,6,"n",1,"BlockN_1",3,"A",2,1,2
"136867",146,1.1755263999994,6,"n",1,"BlockN_1",3,"B",1,2,2
"136867",149,0.822010599999885,6,"n",1,"BlockN_1",3,"B",1,2,2
"136867",202,0.71203499999956,6,"b",1,"BlockF_1",2,"A",2,1,2
"136867",206,1.03487760000007,6,"b",1,"BlockF_1",2,"B",1,2,2
"136867",209,0.954198599999472,6,"n",0,"BlockF_1",2,"B",1,2,2
"136867",211,1.06265830000029,6,"b",1,"BlockF_1",2,"B",1,2,2
"136867",212,0.851938900000277,6,"b",1,"BlockF_1",2,"B",1,2,2
"136867",213,1.59376530000009,6,"n",0,"BlockF_1",2,"B",1,2,2
"136867",215,0.776078200000484,6,"n",0,"BlockF_1",2,"A",2,1,2
"136867",216,0.863965900000039,6,"b",1,"BlockF_1",2,"A",2,1,2
"136867",217,1.03074610000021,6,"n",0,"BlockF_1",2,"A",2,1,2
"136867",219,0.825004299999819,6,"n",0,"BlockF_1",2,"A",2,1,2
"136867",224,0.833246000000145,6,"n",0,"BlockF_1",2,"A",2,1,2
"136867",226,0.951326399999743,6,"b",0,"BlockN_1",3,"A",2,1,2
"136867",227,0.746327599999859,6,"n",1,"BlockN_1",3,"B",1,2,2
"136867",228,1.10798979999981,6,"b",0,"BlockN_1",3,"B",1,2,2
"136867",229,1.26450690000001,6,"n",1,"BlockN_1",3,"A",2,1,2
"136867",230,0.983246600000712,6,"n",1,"BlockN_1",3,"B",1,2,2
"136867",234,0.848451899999418,6,"b",0,"BlockN_1",3,"A",2,1,2
"136867",236,0.80793949999952,6,"n",1,"BlockN_1",3,"A",2,1,2
"136867",238,1.18883209999967,6,"n",1,"BlockN_1",3,"B",1,2,2
"136867",239,0.621987900000022,6,"b",0,"BlockN_1",3,"B",1,2,2
"136867",241,1.26132620000044,6,"b",0,"BlockN_1",3,"B",1,2,2
"136867",243,1.12752139999975,6,"b",0,"BlockN_1",3,"A",2,1,2
"136867",244,0.962578300000132,6,"b",0,"BlockN_1",3,"A",2,1,2
"136867",249,1.11467379999976,6,"b",0,"BlockN_1",3,"A",2,1,2
"136867",305,0.951902100000552,6,"b",1,"BlockF_1",2,"A",2,1,2
"136867",307,0.945176000000174,6,"n",0,"BlockF_1",2,"B",1,2,2
"136867",309,0.780676800000037,6,"b",1,"BlockF_1",2,"B",1,2,2
"136867",310,0.758888299999853,6,"n",0,"BlockF_1",2,"A",2,1,2
"136867",311,0.944138699999712,6,"b",1,"BlockF_1",2,"A",2,1,2
"136867",313,0.917499099999986,6,"n",0,"BlockF_1",2,"B",1,2,2
"136867",314,0.96754349999992,6,"n",0,"BlockF_1",2,"A",2,1,2
"136867",315,1.14474259999952,6,"n",0,"BlockF_1",2,"B",1,2,2
"136867",319,0.773330600000008,6,"n",0,"BlockF_1",2,"A",2,1,2
"136867",320,0.798441500000081,6,"b",1,"BlockF_1",2,"B",1,2,2
"136867",322,0.749018499999693,6,"n",0,"BlockF_1",2,"A",2,1,2
"136867",323,1.06355889999941,6,"b",1,"BlockF_1",2,"B",1,2,2
"136867",324,0.80466990000059,6,"n",0,"BlockF_1",2,"B",1,2,2
"136867",326,0.819457300000067,6,"b",0,"BlockN_1",3,"A",2,1,2
"136867",330,0.657883300000321,6,"n",1,"BlockN_1",3,"B",1,2,2
"136867",331,0.719454000000042,6,"n",1,"BlockN_1",3,"A",2,1,2
"136867",332,0.634883899999295,6,"b",0,"BlockN_1",3,"B",1,2,2
"136867",334,1.33508059999986,6,"b",0,"BlockN_1",3,"A",2,1,2
"136867",336,0.855134999999791,6,"n",1,"BlockN_1",3,"B",1,2,2
"136867",339,0.833530599999904,6,"n",1,"BlockN_1",3,"A",2,1,2
"136867",341,0.632395999999972,6,"b",0,"BlockN_1",3,"A",2,1,2
"136867",343,1.14269280000008,6,"b",0,"BlockN_1",3,"B",1,2,2
"136867",344,0.801813799999763,6,"n",1,"BlockN_1",3,"A",2,1,2
"136867",349,1.06783999999971,6,"n",1,"BlockN_1",3,"B",1,2,2
"152317",2,0.895031300000028,6,"e",1,"BlockFvN",1,"A",2,1,2
"152317",6,0.57579510000005,6,"e",1,"BlockFvN",1,"B",1,2,2
"152317",9,0.44768490000024,6,"e",1,"BlockFvN",1,"B",1,2,2
"152317",11,0.527400999999827,6,"e",1,"BlockFvN",1,"B",1,2,2
"152317",12,0.451125200000206,6,"e",1,"BlockFvN",1,"B",1,2,2
"152317",13,0.376387399999658,6,"e",1,"BlockFvN",1,"B",1,2,2
"152317",15,0.577061800000138,6,"f",0,"BlockFvN",1,"A",2,1,2
"152317",16,7.7761829000001,6,"e",1,"BlockFvN",1,"A",2,1,2
"152317",17,9.25578850000011,6,"e",1,"BlockFvN",1,"A",2,1,2
"152317",24,4.70297549999987,6,"f",0,"BlockFvN",1,"A",2,1,2
"152317",51,0.923456999999871,6,"e",1,"BlockFvN",1,"B",1,2,2
"152317",55,0.955557999999655,6,"e",1,"BlockFvN",1,"A",2,1,2
"152317",56,0.828259099999741,6,"e",1,"BlockFvN",1,"B",1,2,2
"152317",58,0.863193700000011,6,"e",1,"BlockFvN",1,"B",1,2,2
"152317",59,1.31591620000017,6,"e",1,"BlockFvN",1,"A",2,1,2
"152317",60,1.86413510000011,6,"e",1,"BlockFvN",1,"B",1,2,2
"152317",64,0.796774499999628,6,"f",0,"BlockFvN",1,"A",2,1,2
"152317",65,0.709394999999859,6,"f",0,"BlockFvN",1,"A",2,1,2
"152317",66,0.84872230000019,6,"f",0,"BlockFvN",1,"A",2,1,2
"152317",68,0.88492290000022,6,"e",1,"BlockFvN",1,"A",2,1,2
"152317",69,1.03339329999972,6,"e",1,"BlockFvN",1,"B",1,2,2
"152317",70,0.712330199999997,6,"f",0,"BlockFvN",1,"B",1,2,2
"152317",74,0.998325999999906,6,"e",1,"BlockFvN",1,"A",2,1,2
"152317",75,0.7269481000003,6,"e",1,"BlockFvN",1,"B",1,2,2
"152317",105,0.668532199999845,6,"f",0,"BlockFvN",1,"A",2,1,2
"152317",107,0.665388700000221,6,"f",0,"BlockFvN",1,"B",1,2,2
"152317",109,0.784763399999974,6,"e",1,"BlockFvN",1,"B",1,2,2
"152317",110,1.24186689999988,6,"e",1,"BlockFvN",1,"A",2,1,2
"152317",111,0.91257480000013,6,"e",1,"BlockFvN",1,"A",2,1,2
"152317",113,1.21645820000003,6,"e",1,"BlockFvN",1,"B",1,2,2
"152317",114,0.984492200000204,6,"f",0,"BlockFvN",1,"A",2,1,2
"152317",115,0.87316009999995,6,"f",0,"BlockFvN",1,"B",1,2,2
"152317",119,0.697450099999969,6,"e",1,"BlockFvN",1,"A",2,1,2
"152317",120,0.868650800000069,6,"e",1,"BlockFvN",1,"B",1,2,2
"152317",122,0.962235599999985,6,"e",1,"BlockFvN",1,"A",2,1,2
"152317",123,0.898975099999916,6,"f",0,"BlockFvN",1,"B",1,2,2
"152317",124,0.744204300000092,6,"f",0,"BlockFvN",1,"B",1,2,2
"152317",151,1.20416189999969,6,"e",1,"BlockFvN",1,"A",2,1,2
"152317",153,1.02948730000026,6,"f",0,"BlockFvN",1,"B",1,2,2
"152317",154,0.708361299999979,6,"f",0,"BlockFvN",1,"B",1,2,2
"152317",155,0.863428199999817,6,"f",0,"BlockFvN",1,"A",2,1,2
"152317",157,0.682077100000242,6,"e",1,"BlockFvN",1,"B",1,2,2
"152317",159,1.05354920000036,6,"e",1,"BlockFvN",1,"A",2,1,2
"152317",162,0.807825399999729,6,"e",1,"BlockFvN",1,"A",2,1,2
"152317",163,0.735863899999913,6,"e",1,"BlockFvN",1,"A",2,1,2
"152317",166,0.794405900000129,6,"f",0,"BlockFvN",1,"B",1,2,2
"152317",168,0.765038099999856,6,"e",1,"BlockFvN",1,"A",2,1,2
"152317",170,1.40609229999973,6,"e",1,"BlockFvN",1,"A",2,1,2
"152317",173,0.85064999999986,6,"e",1,"BlockFvN",1,"B",1,2,2
"152317",175,0.789639699999952,6,"e",1,"BlockFvN",1,"B",1,2,2
"152317",2,1.54801559999942,6,"b",1,"BlockF_1",2,"A",2,1,2
"152317",4,1.45361779999985,6,"b",1,"BlockF_1",2,"B",1,2,2
"152317",5,0.973091400000158,6,"b",1,"BlockF_1",2,"A",2,1,2
"152317",6,0.958622600000126,6,"b",1,"BlockF_1",2,"B",1,2,2
"152317",9,0.756628600000113,6,"b",1,"BlockF_1",2,"B",1,2,2
"152317",11,0.756958799999666,6,"b",1,"BlockF_1",2,"B",1,2,2
"152317",12,0.672136600000158,6,"b",1,"BlockF_1",2,"B",1,2,2
"152317",13,0.651395500000035,6,"n",0,"BlockF_1",2,"B",1,2,2
"152317",15,1.10789359999944,6,"b",1,"BlockF_1",2,"A",2,1,2
"152317",16,0.702639699999963,6,"b",1,"BlockF_1",2,"A",2,1,2
"152317",17,0.890787100000125,6,"b",1,"BlockF_1",2,"A",2,1,2
"152317",19,0.745204400000148,6,"n",0,"BlockF_1",2,"A",2,1,2
"152317",24,0.986783199999991,6,"n",0,"BlockF_1",2,"A",2,1,2
"152317",26,5.78561750000063,6,"n",1,"BlockN_1",3,"A",2,1,2
"152317",27,1.03841850000026,6,"n",1,"BlockN_1",3,"B",1,2,2
"152317",28,0.748487299999397,6,"n",1,"BlockN_1",3,"B",1,2,2
"152317",29,0.82362699999976,6,"n",1,"BlockN_1",3,"A",2,1,2
"152317",30,0.734521399999721,6,"b",0,"BlockN_1",3,"B",1,2,2
"152317",34,0.748396399999365,6,"n",1,"BlockN_1",3,"A",2,1,2
"152317",36,0.628486300000077,6,"n",1,"BlockN_1",3,"A",2,1,2
"152317",38,0.433567699999912,6,"b",0,"BlockN_1",3,"B",1,2,2
"152317",39,0.745339199999762,6,"n",1,"BlockN_1",3,"B",1,2,2
"152317",41,1.07087200000024,6,"n",1,"BlockN_1",3,"B",1,2,2
"152317",43,1.31211729999995,6,"n",1,"BlockN_1",3,"B",1,2,2
"152317",44,1.42791250000028,6,"n",1,"BlockN_1",3,"A",2,1,2
"152317",49,0.601802700000007,6,"b",0,"BlockN_1",3,"A",2,1,2
"152317",105,0.664385399999446,6,"b",1,"BlockF_1",2,"A",2,1,2
"152317",107,0.820446799999445,6,"b",1,"BlockF_1",2,"B",1,2,2
"152317",109,1.10953079999945,6,"n",0,"BlockF_1",2,"B",1,2,2
"152317",110,1.09098489999997,6,"n",0,"BlockF_1",2,"A",2,1,2
"152317",111,0.702482799999416,6,"b",1,"BlockF_1",2,"A",2,1,2
"152317",113,1.20048959999986,6,"n",0,"BlockF_1",2,"B",1,2,2
"152317",114,0.841054600000462,6,"n",0,"BlockF_1",2,"A",2,1,2
"152317",115,0.656000300000414,6,"n",0,"BlockF_1",2,"B",1,2,2
"152317",119,0.96609669999998,6,"b",1,"BlockF_1",2,"A",2,1,2
"152317",120,0.630638700000418,6,"b",1,"BlockF_1",2,"B",1,2,2
"152317",122,0.689054799999212,6,"b",1,"BlockF_1",2,"A",2,1,2
"152317",123,0.589067799999611,6,"b",1,"BlockF_1",2,"B",1,2,2
"152317",124,0.845177700000022,6,"b",1,"BlockF_1",2,"B",1,2,2
"152317",126,0.893250099999932,6,"b",0,"BlockN_1",3,"A",2,1,2
"152317",127,3.29677050000009,6,"b",0,"BlockN_1",3,"B",1,2,2
"152317",130,0.940326400000231,6,"n",1,"BlockN_1",3,"B",1,2,2
"152317",131,0.71957089999978,6,"n",1,"BlockN_1",3,"A",2,1,2
"152317",132,0.858846999999514,6,"n",1,"BlockN_1",3,"B",1,2,2
"152317",134,3.13608100000056,6,"b",0,"BlockN_1",3,"A",2,1,2
"152317",136,0.673440599999594,6,"n",1,"BlockN_1",3,"B",1,2,2
"152317",139,0.834812300000522,6,"n",1,"BlockN_1",3,"A",2,1,2
"152317",141,1.5558917999997,6,"b",0,"BlockN_1",3,"A",2,1,2
"152317",143,0.715076399999816,6,"n",1,"BlockN_1",3,"B",1,2,2
"152317",144,0.679533799999263,6,"n",1,"BlockN_1",3,"A",2,1,2
"152317",146,0.670002099999692,6,"b",0,"BlockN_1",3,"B",1,2,2
"152317",149,0.654736999999841,6,"n",1,"BlockN_1",3,"B",1,2,2
"152317",202,1.13573350000024,6,"n",0,"BlockF_1",2,"A",2,1,2
"152317",206,0.687688699999853,6,"n",0,"BlockF_1",2,"B",1,2,2
"152317",209,0.658042300000488,6,"b",1,"BlockF_1",2,"B",1,2,2
"152317",211,0.822353900000053,6,"b",1,"BlockF_1",2,"B",1,2,2
"152317",212,0.716821199999686,6,"b",1,"BlockF_1",2,"B",1,2,2
"152317",213,0.760333300000639,6,"n",0,"BlockF_1",2,"B",1,2,2
"152317",215,0.639564100000825,6,"b",1,"BlockF_1",2,"A",2,1,2
"152317",216,0.861574100000325,6,"b",1,"BlockF_1",2,"A",2,1,2
"152317",217,0.849864899999375,6,"n",0,"BlockF_1",2,"A",2,1,2
"152317",219,0.788982500000202,6,"b",1,"BlockF_1",2,"A",2,1,2
"152317",224,0.929388200000176,6,"b",1,"BlockF_1",2,"A",2,1,2
"152317",226,1.3929134,6,"n",1,"BlockN_1",3,"A",2,1,2
"152317",227,0.690156100000422,6,"n",1,"BlockN_1",3,"B",1,2,2
"152317",228,0.669413200000236,6,"n",1,"BlockN_1",3,"B",1,2,2
"152317",229,0.633687900000041,6,"n",1,"BlockN_1",3,"A",2,1,2
"152317",230,1.17628930000046,6,"n",1,"BlockN_1",3,"B",1,2,2
"152317",234,0.735780099999829,6,"b",0,"BlockN_1",3,"A",2,1,2
"152317",236,0.579817699999694,6,"n",1,"BlockN_1",3,"A",2,1,2
"152317",238,0.791081700000177,6,"b",0,"BlockN_1",3,"B",1,2,2
"152317",239,0.6070351999997,6,"n",1,"BlockN_1",3,"B",1,2,2
"152317",241,0.637798499999917,6,"b",0,"BlockN_1",3,"B",1,2,2
"152317",243,0.754878699999608,6,"n",1,"BlockN_1",3,"A",2,1,2
"152317",244,0.541097899999841,6,"n",1,"BlockN_1",3,"A",2,1,2
"152317",249,0.878120699999272,6,"n",1,"BlockN_1",3,"A",2,1,2
"152317",305,0.516340000000127,6,"b",1,"BlockF_1",2,"A",2,1,2
"152317",307,0.581881299999623,6,"b",1,"BlockF_1",2,"B",1,2,2
"152317",309,0.865389100000357,6,"n",0,"BlockF_1",2,"B",1,2,2
"152317",310,0.663156900000104,6,"n",0,"BlockF_1",2,"A",2,1,2
"152317",311,0.692531100000451,6,"b",1,"BlockF_1",2,"A",2,1,2
"152317",313,0.941936500000338,6,"n",0,"BlockF_1",2,"B",1,2,2
"152317",314,0.720380199999454,6,"n",0,"BlockF_1",2,"A",2,1,2
"152317",315,0.746073199999955,6,"n",0,"BlockF_1",2,"B",1,2,2
"152317",319,0.64576390000002,6,"b",1,"BlockF_1",2,"A",2,1,2
"152317",320,0.532283700000335,6,"b",1,"BlockF_1",2,"B",1,2,2
"152317",322,0.939727500000117,6,"b",1,"BlockF_1",2,"A",2,1,2
"152317",323,0.975573299999269,6,"b",1,"BlockF_1",2,"B",1,2,2
"152317",324,0.721340400000372,6,"b",1,"BlockF_1",2,"B",1,2,2
"152317",326,1.58306680000078,6,"n",1,"BlockN_1",3,"A",2,1,2
"152317",330,0.844677199999751,6,"n",1,"BlockN_1",3,"B",1,2,2
"152317",331,0.676161299999876,6,"n",1,"BlockN_1",3,"A",2,1,2
"152317",332,0.704877799999849,6,"n",1,"BlockN_1",3,"B",1,2,2
"152317",334,0.988005200000771,6,"n",1,"BlockN_1",3,"A",2,1,2
"152317",336,0.673524799999541,6,"n",1,"BlockN_1",3,"B",1,2,2
"152317",339,0.718827200000305,6,"n",1,"BlockN_1",3,"A",2,1,2
"152317",341,1.09585000000061,6,"n",1,"BlockN_1",3,"A",2,1,2
"152317",343,0.659776800000145,6,"n",1,"BlockN_1",3,"B",1,2,2
"152317",344,0.545996199999536,6,"n",1,"BlockN_1",3,"A",2,1,2
"152317",349,0.760842800000319,6,"n",1,"BlockN_1",3,"B",1,2,2
"160211",2,0.848902100000032,6,"f",0,"BlockFvN",1,"A",2,1,2
"160211",6,0.65624919999982,6,"e",1,"BlockFvN",1,"B",1,2,2
"160211",9,0.694324399999914,6,"f",0,"BlockFvN",1,"B",1,2,2
"160211",11,0.472268399999848,6,"f",0,"BlockFvN",1,"B",1,2,2
"160211",12,0.411680300000171,6,"e",1,"BlockFvN",1,"B",1,2,2
"160211",13,0.339202600000135,6,"e",1,"BlockFvN",1,"B",1,2,2
"160211",15,0.372831499999847,6,"e",1,"BlockFvN",1,"A",2,1,2
"160211",16,0.510128899999927,6,"f",0,"BlockFvN",1,"A",2,1,2
"160211",17,0.46519760000001,6,"f",0,"BlockFvN",1,"A",2,1,2
"160211",24,0.400812700000188,6,"f",0,"BlockFvN",1,"A",2,1,2
"160211",51,0.690897599999971,6,"e",1,"BlockFvN",1,"B",1,2,2
"160211",55,0.641387300000133,6,"e",1,"BlockFvN",1,"A",2,1,2
"160211",56,0.480143700000099,6,"e",1,"BlockFvN",1,"B",1,2,2
"160211",58,0.584479300000112,6,"e",1,"BlockFvN",1,"B",1,2,2
"160211",59,0.648941100000229,6,"e",1,"BlockFvN",1,"A",2,1,2
"160211",60,0.518190799999957,6,"e",1,"BlockFvN",1,"B",1,2,2
"160211",64,0.470758600000408,6,"f",0,"BlockFvN",1,"A",2,1,2
"160211",65,0.459365900000194,6,"f",0,"BlockFvN",1,"A",2,1,2
"160211",66,0.43257100000028,6,"f",0,"BlockFvN",1,"A",2,1,2
"160211",68,0.507577800000035,6,"f",0,"BlockFvN",1,"A",2,1,2
"160211",69,0.463314699999955,6,"e",1,"BlockFvN",1,"B",1,2,2
"160211",70,0.835943099999895,6,"e",1,"BlockFvN",1,"B",1,2,2
"160211",74,0.70532779999985,6,"e",1,"BlockFvN",1,"A",2,1,2
"160211",75,0.637437700000191,6,"e",1,"BlockFvN",1,"B",1,2,2
"160211",105,0.827007200000025,6,"f",0,"BlockFvN",1,"A",2,1,2
"160211",107,0.740342900000087,6,"e",1,"BlockFvN",1,"B",1,2,2
"160211",109,0.64412560000028,6,"e",1,"BlockFvN",1,"B",1,2,2
"160211",110,0.561216000000059,6,"f",0,"BlockFvN",1,"A",2,1,2
"160211",111,0.85121590000017,6,"e",1,"BlockFvN",1,"A",2,1,2
"160211",113,0.617215499999929,6,"e",1,"BlockFvN",1,"B",1,2,2
"160211",114,0.728505900000073,6,"f",0,"BlockFvN",1,"A",2,1,2
"160211",115,0.579271999999946,6,"e",1,"BlockFvN",1,"B",1,2,2
"160211",119,0.521753499999704,6,"f",0,"BlockFvN",1,"A",2,1,2
"160211",120,0.540439999999762,6,"e",1,"BlockFvN",1,"B",1,2,2
"160211",122,0.462894199999937,6,"f",0,"BlockFvN",1,"A",2,1,2
"160211",123,0.565639800000099,6,"e",1,"BlockFvN",1,"B",1,2,2
"160211",124,0.48708519999991,6,"f",0,"BlockFvN",1,"B",1,2,2
"160211",151,0.615392600000177,6,"f",0,"BlockFvN",1,"A",2,1,2
"160211",153,0.607453000000078,6,"e",1,"BlockFvN",1,"B",1,2,2
"160211",154,0.606719999999768,6,"e",1,"BlockFvN",1,"B",1,2,2
"160211",155,0.605082100000345,6,"f",0,"BlockFvN",1,"A",2,1,2
"160211",157,0.530959100000018,6,"e",1,"BlockFvN",1,"B",1,2,2
"160211",159,0.632892900000115,6,"f",0,"BlockFvN",1,"A",2,1,2
"160211",162,0.473820799999885,6,"f",0,"BlockFvN",1,"A",2,1,2
"160211",163,0.557565799999793,6,"e",1,"BlockFvN",1,"A",2,1,2
"160211",166,0.618577300000197,6,"e",1,"BlockFvN",1,"B",1,2,2
"160211",168,0.555072999999993,6,"e",1,"BlockFvN",1,"A",2,1,2
"160211",170,0.541982100000041,6,"f",0,"BlockFvN",1,"A",2,1,2
"160211",173,0.439531600000009,6,"e",1,"BlockFvN",1,"B",1,2,2
"160211",175,0.579477499999939,6,"e",1,"BlockFvN",1,"B",1,2,2
"160211",2,0.91357939999989,6,"n",0,"BlockF_1",2,"A",2,1,2
"160211",4,0.534008600000107,6,"b",1,"BlockF_1",2,"B",1,2,2
"160211",5,0.617075199999817,6,"n",0,"BlockF_1",2,"A",2,1,2
"160211",6,0.615749300000061,6,"b",1,"BlockF_1",2,"B",1,2,2
"160211",9,0.850120999999945,6,"n",0,"BlockF_1",2,"B",1,2,2
"160211",11,0.507623399999829,6,"b",1,"BlockF_1",2,"B",1,2,2
"160211",12,0.513266399999793,6,"b",1,"BlockF_1",2,"B",1,2,2
"160211",13,0.48419019999983,6,"b",1,"BlockF_1",2,"B",1,2,2
"160211",15,0.688460899999882,6,"n",0,"BlockF_1",2,"A",2,1,2
"160211",16,0.700439499999902,6,"b",1,"BlockF_1",2,"A",2,1,2
"160211",17,0.647838699999738,6,"n",0,"BlockF_1",2,"A",2,1,2
"160211",19,0.729227199999968,6,"n",0,"BlockF_1",2,"A",2,1,2
"160211",24,0.634059800000159,6,"n",0,"BlockF_1",2,"A",2,1,2
"160211",26,0.603063499999735,6,"b",0,"BlockN_1",3,"A",2,1,2
"160211",27,0.572667099999762,6,"n",1,"BlockN_1",3,"B",1,2,2
"160211",28,0.813620400000218,6,"n",1,"BlockN_1",3,"B",1,2,2
"160211",29,0.739897599999949,6,"b",0,"BlockN_1",3,"A",2,1,2
"160211",30,0.655813299999863,6,"n",1,"BlockN_1",3,"B",1,2,2
"160211",34,0.870602899999994,6,"b",0,"BlockN_1",3,"A",2,1,2
"160211",36,0.496373799999674,6,"n",1,"BlockN_1",3,"A",2,1,2
"160211",38,0.497633599999972,6,"n",1,"BlockN_1",3,"B",1,2,2
"160211",39,0.77392269999973,6,"n",1,"BlockN_1",3,"B",1,2,2
"160211",41,0.559304899999916,6,"n",1,"BlockN_1",3,"B",1,2,2
"160211",43,0.532289899999796,6,"n",1,"BlockN_1",3,"B",1,2,2
"160211",44,0.872069300000021,6,"b",0,"BlockN_1",3,"A",2,1,2
"160211",49,0.876394100000198,6,"b",0,"BlockN_1",3,"A",2,1,2
"160211",105,0.62652449999996,6,"n",0,"BlockF_1",2,"A",2,1,2
"160211",107,0.783434800000123,6,"b",1,"BlockF_1",2,"B",1,2,2
"160211",109,0.486610900000414,6,"b",1,"BlockF_1",2,"B",1,2,2
"160211",110,0.553781599999638,6,"n",0,"BlockF_1",2,"A",2,1,2
"160211",111,0.875733299999865,6,"n",0,"BlockF_1",2,"A",2,1,2
"160211",113,0.89730150000014,6,"b",1,"BlockF_1",2,"B",1,2,2
"160211",114,0.61407089999966,6,"n",0,"BlockF_1",2,"A",2,1,2
"160211",115,1.04462749999993,6,"b",1,"BlockF_1",2,"B",1,2,2
"160211",119,1.03262809999978,6,"n",0,"BlockF_1",2,"A",2,1,2
"160211",120,0.550480200000038,6,"b",1,"BlockF_1",2,"B",1,2,2
"160211",122,0.909739100000024,6,"n",0,"BlockF_1",2,"A",2,1,2
"160211",123,0.49769409999999,6,"b",1,"BlockF_1",2,"B",1,2,2
"160211",124,0.676208400000178,6,"b",1,"BlockF_1",2,"B",1,2,2
"160211",126,0.665341999999782,6,"b",0,"BlockN_1",3,"A",2,1,2
"160211",127,0.630732399999943,6,"n",1,"BlockN_1",3,"B",1,2,2
"160211",130,0.586400199999844,6,"n",1,"BlockN_1",3,"B",1,2,2
"160211",131,0.809906800000135,6,"n",1,"BlockN_1",3,"A",2,1,2
"160211",132,0.449895799999922,6,"n",1,"BlockN_1",3,"B",1,2,2
"160211",134,0.781526599999779,6,"b",0,"BlockN_1",3,"A",2,1,2
"160211",136,0.612968700000238,6,"n",1,"BlockN_1",3,"B",1,2,2
"160211",139,0.90842930000008,6,"b",0,"BlockN_1",3,"A",2,1,2
"160211",141,0.634974900000088,6,"b",0,"BlockN_1",3,"A",2,1,2
"160211",143,0.751145199999883,6,"n",1,"BlockN_1",3,"B",1,2,2
"160211",144,0.598527399999966,6,"n",1,"BlockN_1",3,"A",2,1,2
"160211",146,0.511570099999972,6,"n",1,"BlockN_1",3,"B",1,2,2
"160211",149,0.577799199999845,6,"n",1,"BlockN_1",3,"B",1,2,2
"160211",202,0.540825300000051,6,"b",1,"BlockF_1",2,"A",2,1,2
"160211",206,0.58245930000021,6,"n",0,"BlockF_1",2,"B",1,2,2
"160211",209,0.550025200000164,6,"b",1,"BlockF_1",2,"B",1,2,2
"160211",211,0.43321190000006,6,"b",1,"BlockF_1",2,"B",1,2,2
"160211",212,0.392170999999962,6,"b",1,"BlockF_1",2,"B",1,2,2
"160211",213,0.561444699999811,6,"b",1,"BlockF_1",2,"B",1,2,2
"160211",215,0.330247099999724,6,"b",1,"BlockF_1",2,"A",2,1,2
"160211",216,0.419806299999891,6,"b",1,"BlockF_1",2,"A",2,1,2
"160211",217,0.554921999999806,6,"b",1,"BlockF_1",2,"A",2,1,2
"160211",219,0.452012999999624,6,"b",1,"BlockF_1",2,"A",2,1,2
"160211",224,0.724752599999647,6,"n",0,"BlockF_1",2,"A",2,1,2
"160211",226,0.698931200000061,6,"b",0,"BlockN_1",3,"A",2,1,2
"160211",227,0.550307299999986,6,"n",1,"BlockN_1",3,"B",1,2,2
"160211",228,0.840144799999962,6,"n",1,"BlockN_1",3,"B",1,2,2
"160211",229,0.70443860000023,6,"n",1,"BlockN_1",3,"A",2,1,2
"160211",230,0.506629299999986,6,"n",1,"BlockN_1",3,"B",1,2,2
"160211",234,0.540228800000023,6,"b",0,"BlockN_1",3,"A",2,1,2
"160211",236,0.444922700000006,6,"n",1,"BlockN_1",3,"A",2,1,2
"160211",238,0.529080899999826,6,"n",1,"BlockN_1",3,"B",1,2,2
"160211",239,0.724201399999856,6,"n",1,"BlockN_1",3,"B",1,2,2
"160211",241,0.565197199999602,6,"n",1,"BlockN_1",3,"B",1,2,2
"160211",243,0.768345800000134,6,"b",0,"BlockN_1",3,"A",2,1,2
"160211",244,0.488496899999973,6,"b",0,"BlockN_1",3,"A",2,1,2
"160211",249,0.595569800000249,6,"b",0,"BlockN_1",3,"A",2,1,2
"160211",305,0.578734799999438,6,"n",0,"BlockF_1",2,"A",2,1,2
"160211",307,0.455831999999646,6,"b",1,"BlockF_1",2,"B",1,2,2
"160211",309,0.636713699999746,6,"b",1,"BlockF_1",2,"B",1,2,2
"160211",310,0.6994265000003,6,"n",0,"BlockF_1",2,"A",2,1,2
"160211",311,0.5839732000004,6,"b",1,"BlockF_1",2,"A",2,1,2
"160211",313,0.555321699999695,6,"b",1,"BlockF_1",2,"B",1,2,2
"160211",314,0.6840258000002,6,"n",0,"BlockF_1",2,"A",2,1,2
"160211",315,0.552489200000309,6,"b",1,"BlockF_1",2,"B",1,2,2
"160211",319,0.44832359999964,6,"b",1,"BlockF_1",2,"A",2,1,2
"160211",320,0.743034799999805,6,"n",0,"BlockF_1",2,"B",1,2,2
"160211",322,1.23581849999937,6,"b",1,"BlockF_1",2,"A",2,1,2
"160211",323,0.603213500000493,6,"b",1,"BlockF_1",2,"B",1,2,2
"160211",324,0.491782699999931,6,"b",1,"BlockF_1",2,"B",1,2,2
"160211",326,0.728223600000092,6,"b",0,"BlockN_1",3,"A",2,1,2
"160211",330,0.57237780000014,6,"n",1,"BlockN_1",3,"B",1,2,2
"160211",331,0.667786300000444,6,"n",1,"BlockN_1",3,"A",2,1,2
"160211",332,0.440944099999797,6,"n",1,"BlockN_1",3,"B",1,2,2
"160211",334,0.486013499999899,6,"n",1,"BlockN_1",3,"A",2,1,2
"160211",336,0.401936699999169,6,"n",1,"BlockN_1",3,"B",1,2,2
"160211",339,0.596695499999441,6,"n",1,"BlockN_1",3,"A",2,1,2
"160211",341,0.600406399999883,6,"b",0,"BlockN_1",3,"A",2,1,2
"160211",343,0.746721099999377,6,"n",1,"BlockN_1",3,"B",1,2,2
"160211",344,0.516787599999589,6,"n",1,"BlockN_1",3,"A",2,1,2
"160211",349,0.840631200000644,6,"n",1,"BlockN_1",3,"B",1,2,2
"185005",2,1.04049540000051,6,"f",0,"BlockFvN",1,"A",2,1,2
"185005",6,0.764650599998276,6,"e",1,"BlockFvN",1,"B",1,2,2
"185005",9,0.751035099998262,6,"e",1,"BlockFvN",1,"B",1,2,2
"185005",11,0.929757199999585,6,"f",0,"BlockFvN",1,"B",1,2,2
"185005",12,0.838185000000522,6,"e",1,"BlockFvN",1,"B",1,2,2
"185005",13,1.08320430000094,6,"e",1,"BlockFvN",1,"B",1,2,2
"185005",15,0.964268499999889,6,"f",0,"BlockFvN",1,"A",2,1,2
"185005",16,0.998528899999656,6,"f",0,"BlockFvN",1,"A",2,1,2
"185005",17,0.982372599999508,6,"f",0,"BlockFvN",1,"A",2,1,2
"185005",24,1.19996739999988,6,"f",0,"BlockFvN",1,"A",2,1,2
"185005",51,1.22373589999916,6,"e",1,"BlockFvN",1,"B",1,2,2
"185005",55,0.774166300001525,6,"f",0,"BlockFvN",1,"A",2,1,2
"185005",56,0.927330499998789,6,"e",1,"BlockFvN",1,"B",1,2,2
"185005",58,0.994776499999716,6,"e",1,"BlockFvN",1,"B",1,2,2
"185005",59,0.881787800000893,6,"f",0,"BlockFvN",1,"A",2,1,2
"185005",60,0.983505899999727,6,"f",0,"BlockFvN",1,"B",1,2,2
"185005",64,1.43739089999872,6,"f",0,"BlockFvN",1,"A",2,1,2
"185005",65,0.892771799997718,6,"f",0,"BlockFvN",1,"A",2,1,2
"185005",66,1.05712259999927,6,"f",0,"BlockFvN",1,"A",2,1,2
"185005",68,1.24828170000183,6,"e",1,"BlockFvN",1,"A",2,1,2
"185005",69,1.04827910000313,6,"e",1,"BlockFvN",1,"B",1,2,2
"185005",70,1.03175399999964,6,"e",1,"BlockFvN",1,"B",1,2,2
"185005",74,1.11677259999851,6,"e",1,"BlockFvN",1,"A",2,1,2
"185005",75,0.918564599996898,6,"f",0,"BlockFvN",1,"B",1,2,2
"185005",105,1.22913909999988,6,"e",1,"BlockFvN",1,"A",2,1,2
"185005",107,0.992858999998134,6,"e",1,"BlockFvN",1,"B",1,2,2
"185005",109,0.890798200001882,6,"e",1,"BlockFvN",1,"B",1,2,2
"185005",110,0.894189299997379,6,"f",0,"BlockFvN",1,"A",2,1,2
"185005",111,0.898810200000298,6,"e",1,"BlockFvN",1,"A",2,1,2
"185005",113,0.861641700001201,6,"e",1,"BlockFvN",1,"B",1,2,2
"185005",114,0.995328800003335,6,"e",1,"BlockFvN",1,"A",2,1,2
"185005",115,0.802518299999065,6,"e",1,"BlockFvN",1,"B",1,2,2
"185005",119,0.947052999999869,6,"f",0,"BlockFvN",1,"A",2,1,2
"185005",120,0.964224300001661,6,"e",1,"BlockFvN",1,"B",1,2,2
"185005",122,0.720221699997637,6,"f",0,"BlockFvN",1,"A",2,1,2
"185005",123,0.602020300000731,6,"e",1,"BlockFvN",1,"B",1,2,2
"185005",124,1.17771390000053,6,"e",1,"BlockFvN",1,"B",1,2,2
"185005",151,1.08472869999969,6,"f",0,"BlockFvN",1,"A",2,1,2
"185005",153,0.596861099998932,6,"f",0,"BlockFvN",1,"B",1,2,2
"185005",154,0.822308599999815,6,"e",1,"BlockFvN",1,"B",1,2,2
"185005",155,0.684520700000576,6,"f",0,"BlockFvN",1,"A",2,1,2
"185005",157,0.784179499998572,6,"f",0,"BlockFvN",1,"B",1,2,2
"185005",159,0.660185699998692,6,"f",0,"BlockFvN",1,"A",2,1,2
"185005",162,0.790010900000198,6,"f",0,"BlockFvN",1,"A",2,1,2
"185005",163,0.89668249999886,6,"f",0,"BlockFvN",1,"A",2,1,2
"185005",166,1.01181690000158,6,"f",0,"BlockFvN",1,"B",1,2,2
"185005",168,0.950157799998124,6,"e",1,"BlockFvN",1,"A",2,1,2
"185005",170,1.02216459999909,6,"f",0,"BlockFvN",1,"A",2,1,2
"185005",173,0.977769599998282,6,"e",1,"BlockFvN",1,"B",1,2,2
"185005",175,1.51070130000153,6,"e",1,"BlockFvN",1,"B",1,2,2
"185005",2,0.572783199999321,6,"b",0,"BlockN_1",3,"A",2,1,2
"185005",4,0.7045722999992,6,"b",0,"BlockN_1",3,"B",1,2,2
"185005",5,0.859958099999858,6,"n",1,"BlockN_1",3,"A",2,1,2
"185005",6,0.737897700000758,6,"n",1,"BlockN_1",3,"B",1,2,2
"185005",9,0.752829299999576,6,"n",1,"BlockN_1",3,"B",1,2,2
"185005",11,0.78780370000095,6,"n",1,"BlockN_1",3,"B",1,2,2
"185005",12,0.715380600000572,6,"n",1,"BlockN_1",3,"B",1,2,2
"185005",13,0.822972600000867,6,"n",1,"BlockN_1",3,"B",1,2,2
"185005",15,0.914045400000759,6,"b",0,"BlockN_1",3,"A",2,1,2
"185005",16,0.949867799999993,6,"n",1,"BlockN_1",3,"A",2,1,2
"185005",17,1.31867899999997,6,"n",1,"BlockN_1",3,"A",2,1,2
"185005",19,1.55201459999989,6,"n",1,"BlockN_1",3,"A",2,1,2
"185005",24,0.807967200000348,6,"b",0,"BlockN_1",3,"A",2,1,2
"185005",26,0.839032899999438,6,"b",1,"BlockF_1",2,"A",2,1,2
"185005",27,0.684637599999405,6,"b",1,"BlockF_1",2,"B",1,2,2
"185005",28,0.761921999999686,6,"b",1,"BlockF_1",2,"B",1,2,2
"185005",29,0.819591299999956,6,"n",0,"BlockF_1",2,"A",2,1,2
"185005",30,0.747116900000037,6,"b",1,"BlockF_1",2,"B",1,2,2
"185005",34,0.690620800000033,6,"n",0,"BlockF_1",2,"A",2,1,2
"185005",36,0.816591800001333,6,"b",1,"BlockF_1",2,"A",2,1,2
"185005",38,0.81208400000105,6,"b",1,"BlockF_1",2,"B",1,2,2
"185005",39,0.707717900000716,6,"b",1,"BlockF_1",2,"B",1,2,2
"185005",41,0.902346000000762,6,"b",1,"BlockF_1",2,"B",1,2,2
"185005",43,0.863675699998566,6,"b",1,"BlockF_1",2,"B",1,2,2
"185005",44,0.854138099999545,6,"b",1,"BlockF_1",2,"A",2,1,2
"185005",49,1.52404229999956,6,"n",0,"BlockF_1",2,"A",2,1,2
"185005",105,0.85777170000074,6,"b",0,"BlockN_1",3,"A",2,1,2
"185005",107,0.826457699999082,6,"n",1,"BlockN_1",3,"B",1,2,2
"185005",109,0.78956659999858,6,"n",1,"BlockN_1",3,"B",1,2,2
"185005",110,0.65405230000033,6,"b",0,"BlockN_1",3,"A",2,1,2
"185005",111,0.747241200000644,6,"n",1,"BlockN_1",3,"A",2,1,2
"185005",113,0.689108700000361,6,"n",1,"BlockN_1",3,"B",1,2,2
"185005",114,0.781954899999619,6,"n",1,"BlockN_1",3,"A",2,1,2
"185005",115,0.792343799999799,6,"n",1,"BlockN_1",3,"B",1,2,2
"185005",119,0.973491099999592,6,"b",0,"BlockN_1",3,"A",2,1,2
"185005",120,0.781542400000035,6,"n",1,"BlockN_1",3,"B",1,2,2
"185005",122,0.812499199999365,6,"b",0,"BlockN_1",3,"A",2,1,2
"185005",123,0.772837500000605,6,"n",1,"BlockN_1",3,"B",1,2,2
"185005",124,1.85456589999922,6,"n",1,"BlockN_1",3,"B",1,2,2
"185005",126,0.769429500000115,6,"n",0,"BlockF_1",2,"A",2,1,2
"185005",127,0.649083800000881,6,"b",1,"BlockF_1",2,"B",1,2,2
"185005",130,0.537322400001358,6,"b",1,"BlockF_1",2,"B",1,2,2
"185005",131,0.844173699999374,6,"b",1,"BlockF_1",2,"A",2,1,2
"185005",132,0.865473500000007,6,"b",1,"BlockF_1",2,"B",1,2,2
"185005",134,0.745107099999586,6,"b",1,"BlockF_1",2,"A",2,1,2
"185005",136,0.598953099999562,6,"b",1,"BlockF_1",2,"B",1,2,2
"185005",139,0.505210199999055,6,"b",1,"BlockF_1",2,"A",2,1,2
"185005",141,0.637236800001119,6,"n",0,"BlockF_1",2,"A",2,1,2
"185005",143,0.632458099998985,6,"b",1,"BlockF_1",2,"B",1,2,2
"185005",144,0.870084300000599,6,"b",1,"BlockF_1",2,"A",2,1,2
"185005",146,2.49946119999913,6,"b",1,"BlockF_1",2,"B",1,2,2
"185005",149,0.820657100000972,6,"b",1,"BlockF_1",2,"B",1,2,2
"185005",202,0.50787180000043,6,"b",0,"BlockN_1",3,"A",2,1,2
"185005",206,0.712290199999188,6,"n",1,"BlockN_1",3,"B",1,2,2
"185005",209,0.727470100000573,6,"n",1,"BlockN_1",3,"B",1,2,2
"185005",211,1.61253600000055,6,"b",0,"BlockN_1",3,"B",1,2,2
"185005",212,0.787986899998941,6,"n",1,"BlockN_1",3,"B",1,2,2
"185005",213,0.700847899999644,6,"n",1,"BlockN_1",3,"B",1,2,2
"185005",215,0.883933099999922,6,"b",0,"BlockN_1",3,"A",2,1,2
"185005",216,1.12638610000067,6,"n",1,"BlockN_1",3,"A",2,1,2
"185005",217,1.55540119999932,6,"n",1,"BlockN_1",3,"A",2,1,2
"185005",219,0.912049799999295,6,"b",0,"BlockN_1",3,"A",2,1,2
"185005",224,1.07310460000008,6,"b",0,"BlockN_1",3,"A",2,1,2
"185005",226,3.20836920000147,6,"b",1,"BlockF_1",2,"A",2,1,2
"185005",227,0.97903260000021,6,"b",1,"BlockF_1",2,"B",1,2,2
"185005",228,0.868421200000739,6,"b",1,"BlockF_1",2,"B",1,2,2
"185005",229,0.794063299999834,6,"b",1,"BlockF_1",2,"A",2,1,2
"185005",230,0.849872299999333,6,"b",1,"BlockF_1",2,"B",1,2,2
"185005",234,0.61182810000173,6,"n",0,"BlockF_1",2,"A",2,1,2
"185005",236,0.659963800000696,6,"b",1,"BlockF_1",2,"A",2,1,2
"185005",238,0.891045000000304,6,"b",1,"BlockF_1",2,"B",1,2,2
"185005",239,0.943170099999406,6,"n",0,"BlockF_1",2,"B",1,2,2
"185005",241,0.647488199998406,6,"b",1,"BlockF_1",2,"B",1,2,2
"185005",243,0.858981200000926,6,"n",0,"BlockF_1",2,"A",2,1,2
"185005",244,0.89846100000068,6,"b",1,"BlockF_1",2,"A",2,1,2
"185005",249,1.08169790000102,6,"n",0,"BlockF_1",2,"A",2,1,2
"185005",305,1.04407759999958,6,"n",1,"BlockN_1",3,"A",2,1,2
"185005",307,1.01561159999983,6,"b",0,"BlockN_1",3,"B",1,2,2
"185005",309,0.736603800000012,6,"n",1,"BlockN_1",3,"B",1,2,2
"185005",310,0.635222200000499,6,"b",0,"BlockN_1",3,"A",2,1,2
"185005",311,1.75490469999932,6,"n",1,"BlockN_1",3,"A",2,1,2
"185005",313,0.810858900000312,6,"n",1,"BlockN_1",3,"B",1,2,2
"185005",314,0.720960199998444,6,"n",1,"BlockN_1",3,"A",2,1,2
"185005",315,1.00416499999847,6,"n",1,"BlockN_1",3,"B",1,2,2
"185005",319,0.734844799999337,6,"b",0,"BlockN_1",3,"A",2,1,2
"185005",320,0.809342900000047,6,"n",1,"BlockN_1",3,"B",1,2,2
"185005",322,0.715482699999484,6,"b",0,"BlockN_1",3,"A",2,1,2
"185005",323,0.807611099999122,6,"n",1,"BlockN_1",3,"B",1,2,2
"185005",324,0.66963190000024,6,"n",1,"BlockN_1",3,"B",1,2,2
"185005",326,2.75353939999877,6,"n",0,"BlockF_1",2,"A",2,1,2
"185005",330,0.716599100000167,6,"b",1,"BlockF_1",2,"B",1,2,2
"185005",331,1.11147309999978,6,"b",1,"BlockF_1",2,"A",2,1,2
"185005",332,0.818403899998884,6,"n",0,"BlockF_1",2,"B",1,2,2
"185005",334,0.881313800000498,6,"b",1,"BlockF_1",2,"A",2,1,2
"185005",336,0.688836699999229,6,"n",0,"BlockF_1",2,"B",1,2,2
"185005",339,0.990992200000619,6,"b",1,"BlockF_1",2,"A",2,1,2
"185005",341,0.697728400000415,6,"n",0,"BlockF_1",2,"A",2,1,2
"185005",343,0.863081899999088,6,"b",1,"BlockF_1",2,"B",1,2,2
"185005",344,0.918184400001337,6,"b",1,"BlockF_1",2,"A",2,1,2
"185005",349,0.853305799999362,6,"b",1,"BlockF_1",2,"B",1,2,2
"207436",2,1.16993700000057,6,"f",0,"BlockFvN",1,"A",2,1,2
"207436",6,0.363174299999628,6,"e",1,"BlockFvN",1,"B",1,2,2
"207436",9,0.683962200000678,6,"e",1,"BlockFvN",1,"B",1,2,2
"207436",11,0.674018400000023,6,"f",0,"BlockFvN",1,"B",1,2,2
"207436",12,0.543220399999882,6,"e",1,"BlockFvN",1,"B",1,2,2
"207436",13,0.335751700000401,6,"e",1,"BlockFvN",1,"B",1,2,2
"207436",15,0.387630600000193,6,"e",1,"BlockFvN",1,"A",2,1,2
"207436",16,0.73155879999922,6,"f",0,"BlockFvN",1,"A",2,1,2
"207436",17,0.550487800000155,6,"f",0,"BlockFvN",1,"A",2,1,2
"207436",24,0.519505999999637,6,"f",0,"BlockFvN",1,"A",2,1,2
"207436",51,1.2590952999999,6,"e",1,"BlockFvN",1,"B",1,2,2
"207436",55,0.625588100000641,6,"f",0,"BlockFvN",1,"A",2,1,2
"207436",56,0.688634600000114,6,"e",1,"BlockFvN",1,"B",1,2,2
"207436",58,1.50221659999988,6,"e",1,"BlockFvN",1,"B",1,2,2
"207436",59,0.633157700000083,6,"f",0,"BlockFvN",1,"A",2,1,2
"207436",60,0.727380999999696,6,"e",1,"BlockFvN",1,"B",1,2,2
"207436",64,0.574436599999899,6,"f",0,"BlockFvN",1,"A",2,1,2
"207436",65,0.607077299999219,6,"e",1,"BlockFvN",1,"A",2,1,2
"207436",66,1.0532645000003,6,"f",0,"BlockFvN",1,"A",2,1,2
"207436",68,1.67545560000053,6,"f",0,"BlockFvN",1,"A",2,1,2
"207436",69,0.674721800000043,6,"e",1,"BlockFvN",1,"B",1,2,2
"207436",70,0.382419799999298,6,"e",1,"BlockFvN",1,"B",1,2,2
"207436",74,0.580372499999612,6,"f",0,"BlockFvN",1,"A",2,1,2
"207436",75,0.661688300000606,6,"e",1,"BlockFvN",1,"B",1,2,2
"207436",105,0.586180400000558,6,"f",0,"BlockFvN",1,"A",2,1,2
"207436",107,0.787823399999979,6,"e",1,"BlockFvN",1,"B",1,2,2
"207436",109,0.580225800000335,6,"e",1,"BlockFvN",1,"B",1,2,2
"207436",110,0.533797299999605,6,"f",0,"BlockFvN",1,"A",2,1,2
"207436",111,0.615784199999325,6,"f",0,"BlockFvN",1,"A",2,1,2
"207436",113,0.507897000000412,6,"e",1,"BlockFvN",1,"B",1,2,2
"207436",114,0.575596200000291,6,"f",0,"BlockFvN",1,"A",2,1,2
"207436",115,0.591468700000405,6,"e",1,"BlockFvN",1,"B",1,2,2
"207436",119,1.34459009999955,6,"e",1,"BlockFvN",1,"A",2,1,2
"207436",120,0.85032130000036,6,"e",1,"BlockFvN",1,"B",1,2,2
"207436",122,0.59963019999941,6,"f",0,"BlockFvN",1,"A",2,1,2
"207436",123,1.17632239999966,6,"e",1,"BlockFvN",1,"B",1,2,2
"207436",124,1.45714210000006,6,"e",1,"BlockFvN",1,"B",1,2,2
"207436",151,0.636585499999455,6,"f",0,"BlockFvN",1,"A",2,1,2
"207436",153,0.698969399999442,6,"e",1,"BlockFvN",1,"B",1,2,2
"207436",154,0.582102100000156,6,"e",1,"BlockFvN",1,"B",1,2,2
"207436",155,0.615304699999797,6,"f",0,"BlockFvN",1,"A",2,1,2
"207436",157,0.613456000000042,6,"f",0,"BlockFvN",1,"B",1,2,2
"207436",159,0.551611400000183,6,"f",0,"BlockFvN",1,"A",2,1,2
"207436",162,0.556854600000406,6,"f",0,"BlockFvN",1,"A",2,1,2
"207436",163,0.557490300000609,6,"f",0,"BlockFvN",1,"A",2,1,2
"207436",166,0.452537099999972,6,"f",0,"BlockFvN",1,"B",1,2,2
"207436",168,0.300870899999609,6,"f",0,"BlockFvN",1,"A",2,1,2
"207436",170,0.291276400000243,6,"f",0,"BlockFvN",1,"A",2,1,2
"207436",173,0.360505999999987,6,"e",1,"BlockFvN",1,"B",1,2,2
"207436",175,0.52090969999972,6,"e",1,"BlockFvN",1,"B",1,2,2
"207436",2,1.48151049999979,6,"n",0,"BlockF_1",2,"A",2,1,2
"207436",4,1.89216040000065,6,"n",0,"BlockF_1",2,"B",1,2,2
"207436",5,0.641009200000553,6,"n",0,"BlockF_1",2,"A",2,1,2
"207436",6,1.31038689999968,6,"b",1,"BlockF_1",2,"B",1,2,2
"207436",9,1.07242759999917,6,"b",1,"BlockF_1",2,"B",1,2,2
"207436",11,1.52742409999973,6,"b",1,"BlockF_1",2,"B",1,2,2
"207436",12,0.785732899999857,6,"b",1,"BlockF_1",2,"B",1,2,2
"207436",13,0.731327100000271,6,"b",1,"BlockF_1",2,"B",1,2,2
"207436",15,0.772848100000374,6,"n",0,"BlockF_1",2,"A",2,1,2
"207436",16,0.734038699999473,6,"n",0,"BlockF_1",2,"A",2,1,2
"207436",17,0.553061399999933,6,"n",0,"BlockF_1",2,"A",2,1,2
"207436",19,0.538160899999639,6,"n",0,"BlockF_1",2,"A",2,1,2
"207436",24,1.61467869999979,6,"n",0,"BlockF_1",2,"A",2,1,2
"207436",26,1.29045779999979,6,"b",0,"BlockN_1",3,"A",2,1,2
"207436",27,1.10264999999981,6,"n",1,"BlockN_1",3,"B",1,2,2
"207436",28,1.22881400000006,6,"n",1,"BlockN_1",3,"B",1,2,2
"207436",29,0.70736289999968,6,"b",0,"BlockN_1",3,"A",2,1,2
"207436",30,2.03043900000011,6,"n",1,"BlockN_1",3,"B",1,2,2
"207436",34,1.20731009999963,6,"b",0,"BlockN_1",3,"A",2,1,2
"207436",36,0.798872599999413,6,"n",1,"BlockN_1",3,"A",2,1,2
"207436",38,0.849161899999672,6,"n",1,"BlockN_1",3,"B",1,2,2
"207436",39,0.80787810000038,6,"b",0,"BlockN_1",3,"B",1,2,2
"207436",41,1.12431409999954,6,"b",0,"BlockN_1",3,"B",1,2,2
"207436",43,0.939123199999813,6,"n",1,"BlockN_1",3,"B",1,2,2
"207436",44,1.07165290000012,6,"b",0,"BlockN_1",3,"A",2,1,2
"207436",49,0.618583100000251,6,"b",0,"BlockN_1",3,"A",2,1,2
"207436",105,0.771982000000207,6,"n",0,"BlockF_1",2,"A",2,1,2
"207436",107,0.680735300000379,6,"n",0,"BlockF_1",2,"B",1,2,2
"207436",109,0.774769300000116,6,"b",1,"BlockF_1",2,"B",1,2,2
"207436",110,0.734870400000545,6,"n",0,"BlockF_1",2,"A",2,1,2
"207436",111,3.27363740000055,6,"n",0,"BlockF_1",2,"A",2,1,2
"207436",113,0.529582899999696,6,"b",1,"BlockF_1",2,"B",1,2,2
"207436",114,0.516000800000256,6,"n",0,"BlockF_1",2,"A",2,1,2
"207436",115,0.50450600000022,6,"b",1,"BlockF_1",2,"B",1,2,2
"207436",119,0.648216800000228,6,"n",0,"BlockF_1",2,"A",2,1,2
"207436",120,0.998205799999596,6,"b",1,"BlockF_1",2,"B",1,2,2
"207436",122,0.566307799999777,6,"n",0,"BlockF_1",2,"A",2,1,2
"207436",123,0.56660809999994,6,"b",1,"BlockF_1",2,"B",1,2,2
"207436",124,1.84796300000016,6,"b",1,"BlockF_1",2,"B",1,2,2
"207436",126,1.1563213999998,6,"b",0,"BlockN_1",3,"A",2,1,2
"207436",127,0.70061429999987,6,"n",1,"BlockN_1",3,"B",1,2,2
"207436",130,0.938723100000061,6,"n",1,"BlockN_1",3,"B",1,2,2
"207436",131,0.748898600000757,6,"b",0,"BlockN_1",3,"A",2,1,2
"207436",132,0.534761799999615,6,"b",0,"BlockN_1",3,"B",1,2,2
"207436",134,0.586567100000138,6,"b",0,"BlockN_1",3,"A",2,1,2
"207436",136,1.02327849999983,6,"n",1,"BlockN_1",3,"B",1,2,2
"207436",139,0.715521600000102,6,"b",0,"BlockN_1",3,"A",2,1,2
"207436",141,0.515495100000408,6,"b",0,"BlockN_1",3,"A",2,1,2
"207436",143,0.682386299999962,6,"n",1,"BlockN_1",3,"B",1,2,2
"207436",144,0.679993900000227,6,"b",0,"BlockN_1",3,"A",2,1,2
"207436",146,0.709702300000572,6,"n",1,"BlockN_1",3,"B",1,2,2
"207436",149,0.761664099999507,6,"n",1,"BlockN_1",3,"B",1,2,2
"207436",202,1.02641979999953,6,"n",0,"BlockF_1",2,"A",2,1,2
"207436",206,0.627077299999655,6,"b",1,"BlockF_1",2,"B",1,2,2
"207436",209,0.546490599999743,6,"b",1,"BlockF_1",2,"B",1,2,2
"207436",211,0.583810500000254,6,"n",0,"BlockF_1",2,"B",1,2,2
"207436",212,0.552915199999916,6,"b",1,"BlockF_1",2,"B",1,2,2
"207436",213,0.585660799999459,6,"b",1,"BlockF_1",2,"B",1,2,2
"207436",215,0.573436200000287,6,"b",1,"BlockF_1",2,"A",2,1,2
"207436",216,0.829428000000007,6,"b",1,"BlockF_1",2,"A",2,1,2
"207436",217,2.42015280000032,6,"n",0,"BlockF_1",2,"A",2,1,2
"207436",219,0.553743999999824,6,"n",0,"BlockF_1",2,"A",2,1,2
"207436",224,1.86410260000048,6,"n",0,"BlockF_1",2,"A",2,1,2
"207436",226,0.663990099999864,6,"n",1,"BlockN_1",3,"A",2,1,2
"207436",227,0.70855819999997,6,"b",0,"BlockN_1",3,"B",1,2,2
"207436",228,2.41614260000006,6,"n",1,"BlockN_1",3,"B",1,2,2
"207436",229,1.25774649999948,6,"b",0,"BlockN_1",3,"A",2,1,2
"207436",230,0.895165100000668,6,"b",0,"BlockN_1",3,"B",1,2,2
"207436",234,0.796214299999519,6,"n",1,"BlockN_1",3,"A",2,1,2
"207436",236,0.647789300000113,6,"b",0,"BlockN_1",3,"A",2,1,2
"207436",238,0.487899100000504,6,"n",1,"BlockN_1",3,"B",1,2,2
"207436",239,0.714542199999414,6,"b",0,"BlockN_1",3,"B",1,2,2
"207436",241,0.427274900000157,6,"n",1,"BlockN_1",3,"B",1,2,2
"207436",243,1.25410009999996,6,"n",1,"BlockN_1",3,"A",2,1,2
"207436",244,0.651542800000243,6,"n",1,"BlockN_1",3,"A",2,1,2
"207436",249,0.520024499999636,6,"n",1,"BlockN_1",3,"A",2,1,2
"207436",305,0.598483100000522,6,"n",0,"BlockF_1",2,"A",2,1,2
"207436",307,0.528486000000157,6,"b",1,"BlockF_1",2,"B",1,2,2
"207436",309,0.534846800000196,6,"b",1,"BlockF_1",2,"B",1,2,2
"207436",310,0.616495500000383,6,"n",0,"BlockF_1",2,"A",2,1,2
"207436",311,0.618175999999949,6,"n",0,"BlockF_1",2,"A",2,1,2
"207436",313,0.571171699999468,6,"b",1,"BlockF_1",2,"B",1,2,2
"207436",314,0.491879199999858,6,"n",0,"BlockF_1",2,"A",2,1,2
"207436",315,0.734867000000122,6,"b",1,"BlockF_1",2,"B",1,2,2
"207436",319,0.498913300000822,6,"n",0,"BlockF_1",2,"A",2,1,2
"207436",320,0.471183399999973,6,"b",1,"BlockF_1",2,"B",1,2,2
"207436",322,0.577672999999777,6,"b",1,"BlockF_1",2,"A",2,1,2
"207436",323,0.529779299999973,6,"b",1,"BlockF_1",2,"B",1,2,2
"207436",324,0.644762599999922,6,"b",1,"BlockF_1",2,"B",1,2,2
"207436",326,0.576548700000785,6,"n",1,"BlockN_1",3,"A",2,1,2
"207436",330,1.47761959999934,6,"n",1,"BlockN_1",3,"B",1,2,2
"207436",331,0.8664275000001,6,"b",0,"BlockN_1",3,"A",2,1,2
"207436",332,0.648719299999357,6,"n",1,"BlockN_1",3,"B",1,2,2
"207436",334,0.500570300000618,6,"b",0,"BlockN_1",3,"A",2,1,2
"207436",336,1.2761375,6,"n",1,"BlockN_1",3,"B",1,2,2
"207436",339,0.526981199999682,6,"b",0,"BlockN_1",3,"A",2,1,2
"207436",341,0.45724859999973,6,"b",0,"BlockN_1",3,"A",2,1,2
"207436",343,0.580813900000066,6,"n",1,"BlockN_1",3,"B",1,2,2
"207436",344,0.436499299999923,6,"n",1,"BlockN_1",3,"A",2,1,2
"207436",349,0.58647480000036,6,"n",1,"BlockN_1",3,"B",1,2,2
"215147",2,1.98327360000008,6,"f",0,"BlockFvN",1,"A",2,1,2
"215147",6,0.988393200000019,6,"e",1,"BlockFvN",1,"B",1,2,2
"215147",9,0.61139490000005,6,"e",1,"BlockFvN",1,"B",1,2,2
"215147",11,0.598498199999995,6,"e",1,"BlockFvN",1,"B",1,2,2
"215147",12,0.470926499999905,6,"e",1,"BlockFvN",1,"B",1,2,2
"215147",13,0.651453899999979,6,"e",1,"BlockFvN",1,"B",1,2,2
"215147",15,0.670213399999966,6,"f",0,"BlockFvN",1,"A",2,1,2
"215147",16,0.490664700000025,6,"f",0,"BlockFvN",1,"A",2,1,2
"215147",17,0.541844700000183,6,"f",0,"BlockFvN",1,"A",2,1,2
"215147",24,0.593497599999864,6,"f",0,"BlockFvN",1,"A",2,1,2
"215147",51,0.786886800000048,6,"e",1,"BlockFvN",1,"B",1,2,2
"215147",55,1.3972103000001,6,"f",0,"BlockFvN",1,"A",2,1,2
"215147",56,0.741648299999952,6,"e",1,"BlockFvN",1,"B",1,2,2
"215147",58,1.00148910000007,6,"e",1,"BlockFvN",1,"B",1,2,2
"215147",59,0.778980199999978,6,"f",0,"BlockFvN",1,"A",2,1,2
"215147",60,0.547442400000136,6,"f",0,"BlockFvN",1,"B",1,2,2
"215147",64,0.595228899999938,6,"e",1,"BlockFvN",1,"A",2,1,2
"215147",65,0.915143199999875,6,"f",0,"BlockFvN",1,"A",2,1,2
"215147",66,0.821194500000047,6,"f",0,"BlockFvN",1,"A",2,1,2
"215147",68,1.10391860000004,6,"f",0,"BlockFvN",1,"A",2,1,2
"215147",69,0.458529300000009,6,"e",1,"BlockFvN",1,"B",1,2,2
"215147",70,0.46285469999998,6,"e",1,"BlockFvN",1,"B",1,2,2
"215147",74,0.620317399999976,6,"e",1,"BlockFvN",1,"A",2,1,2
"215147",75,0.522029900000007,6,"e",1,"BlockFvN",1,"B",1,2,2
"215147",105,0.904577500000187,6,"e",1,"BlockFvN",1,"A",2,1,2
"215147",107,0.618501999999808,6,"f",0,"BlockFvN",1,"B",1,2,2
"215147",109,0.519313099999863,6,"e",1,"BlockFvN",1,"B",1,2,2
"215147",110,0.795858100000032,6,"f",0,"BlockFvN",1,"A",2,1,2
"215147",111,0.531285400000115,6,"e",1,"BlockFvN",1,"A",2,1,2
"215147",113,0.871588099999826,6,"e",1,"BlockFvN",1,"B",1,2,2
"215147",114,0.58869639999989,6,"e",1,"BlockFvN",1,"A",2,1,2
"215147",115,0.58753210000009,6,"e",1,"BlockFvN",1,"B",1,2,2
"215147",119,0.645194199999878,6,"e",1,"BlockFvN",1,"A",2,1,2
"215147",120,0.563569700000016,6,"e",1,"BlockFvN",1,"B",1,2,2
"215147",122,0.92115560000002,6,"f",0,"BlockFvN",1,"A",2,1,2
"215147",123,0.731920400000035,6,"e",1,"BlockFvN",1,"B",1,2,2
"215147",124,0.520226899999898,6,"e",1,"BlockFvN",1,"B",1,2,2
"215147",151,0.655961400000024,6,"f",0,"BlockFvN",1,"A",2,1,2
"215147",153,1.51550570000018,6,"f",0,"BlockFvN",1,"B",1,2,2
"215147",154,1.3187289,6,"e",1,"BlockFvN",1,"B",1,2,2
"215147",155,0.795225800000026,6,"e",1,"BlockFvN",1,"A",2,1,2
"215147",157,2.56500369999981,6,"f",0,"BlockFvN",1,"B",1,2,2
"215147",159,0.772598000000016,6,"e",1,"BlockFvN",1,"A",2,1,2
"215147",162,0.737463400000024,6,"e",1,"BlockFvN",1,"A",2,1,2
"215147",163,0.908356400000002,6,"e",1,"BlockFvN",1,"A",2,1,2
"215147",166,0.745648500000016,6,"e",1,"BlockFvN",1,"B",1,2,2
"215147",168,0.633723400000008,6,"e",1,"BlockFvN",1,"A",2,1,2
"215147",170,0.706531600000062,6,"f",0,"BlockFvN",1,"A",2,1,2
"215147",173,0.878955700000006,6,"e",1,"BlockFvN",1,"B",1,2,2
"215147",175,0.578154600000062,6,"e",1,"BlockFvN",1,"B",1,2,2
"215147",2,0.646682000000055,6,"b",0,"BlockN_1",3,"A",2,1,2
"215147",4,0.872038900000007,6,"b",0,"BlockN_1",3,"B",1,2,2
"215147",5,0.5248074000001,6,"b",0,"BlockN_1",3,"A",2,1,2
"215147",6,0.463482699999986,6,"n",1,"BlockN_1",3,"B",1,2,2
"215147",9,0.582361300000002,6,"n",1,"BlockN_1",3,"B",1,2,2
"215147",11,0.871690299999955,6,"n",1,"BlockN_1",3,"B",1,2,2
"215147",12,0.508977999999843,6,"n",1,"BlockN_1",3,"B",1,2,2
"215147",13,0.479711499999894,6,"n",1,"BlockN_1",3,"B",1,2,2
"215147",15,0.781247699999994,6,"b",0,"BlockN_1",3,"A",2,1,2
"215147",16,0.612927899999931,6,"n",1,"BlockN_1",3,"A",2,1,2
"215147",17,0.756112099999882,6,"n",1,"BlockN_1",3,"A",2,1,2
"215147",19,0.693371999999954,6,"b",0,"BlockN_1",3,"A",2,1,2
"215147",24,0.60732280000002,6,"b",0,"BlockN_1",3,"A",2,1,2
"215147",26,0.804407399999945,6,"n",0,"BlockF_1",2,"A",2,1,2
"215147",27,0.637750400000186,6,"b",1,"BlockF_1",2,"B",1,2,2
"215147",28,0.699206900000036,6,"b",1,"BlockF_1",2,"B",1,2,2
"215147",29,0.791803699999946,6,"n",0,"BlockF_1",2,"A",2,1,2
"215147",30,2.44752040000003,6,"b",1,"BlockF_1",2,"B",1,2,2
"215147",34,0.77659420000009,6,"n",0,"BlockF_1",2,"A",2,1,2
"215147",36,1.20873869999991,6,"b",1,"BlockF_1",2,"A",2,1,2
"215147",38,0.716460000000097,6,"b",1,"BlockF_1",2,"B",1,2,2
"215147",39,0.760725500000035,6,"b",1,"BlockF_1",2,"B",1,2,2
"215147",41,0.574625799999922,6,"b",1,"BlockF_1",2,"B",1,2,2
"215147",43,0.778503900000032,6,"b",1,"BlockF_1",2,"B",1,2,2
"215147",44,0.626532700000098,6,"b",1,"BlockF_1",2,"A",2,1,2
"215147",49,0.578899500000034,6,"b",1,"BlockF_1",2,"A",2,1,2
"215147",105,0.898518899999999,6,"n",1,"BlockN_1",3,"A",2,1,2
"215147",107,1.25561169999992,6,"n",1,"BlockN_1",3,"B",1,2,2
"215147",109,0.50308659999996,6,"n",1,"BlockN_1",3,"B",1,2,2
"215147",110,0.730815000000121,6,"b",0,"BlockN_1",3,"A",2,1,2
"215147",111,1.07660989999999,6,"n",1,"BlockN_1",3,"A",2,1,2
"215147",113,1.27455840000016,6,"n",1,"BlockN_1",3,"B",1,2,2
"215147",114,1.4385542,6,"n",1,"BlockN_1",3,"A",2,1,2
"215147",115,1.19873339999981,6,"b",0,"BlockN_1",3,"B",1,2,2
"215147",119,0.743638800000099,6,"b",0,"BlockN_1",3,"A",2,1,2
"215147",120,0.785650600000054,6,"n",1,"BlockN_1",3,"B",1,2,2
"215147",122,0.682590699999992,6,"b",0,"BlockN_1",3,"A",2,1,2
"215147",123,0.75916089999987,6,"b",0,"BlockN_1",3,"B",1,2,2
"215147",124,0.752960600000051,6,"n",1,"BlockN_1",3,"B",1,2,2
"215147",126,3.43050370000014,6,"b",1,"BlockF_1",2,"A",2,1,2
"215147",127,0.488208700000087,6,"b",1,"BlockF_1",2,"B",1,2,2
"215147",130,1.34071949999998,6,"n",0,"BlockF_1",2,"B",1,2,2
"215147",131,0.622481899999912,6,"n",0,"BlockF_1",2,"A",2,1,2
"215147",132,0.638145099999974,6,"b",1,"BlockF_1",2,"B",1,2,2
"215147",134,0.672505999999885,6,"n",0,"BlockF_1",2,"A",2,1,2
"215147",136,0.60139909999998,6,"b",1,"BlockF_1",2,"B",1,2,2
"215147",139,5.50442799999996,6,"n",0,"BlockF_1",2,"A",2,1,2
"215147",141,0.577354000000014,6,"n",0,"BlockF_1",2,"A",2,1,2
"215147",143,1.34003540000003,6,"b",1,"BlockF_1",2,"B",1,2,2
"215147",144,0.878190399999994,6,"b",1,"BlockF_1",2,"A",2,1,2
"215147",146,1.02465050000001,6,"b",1,"BlockF_1",2,"B",1,2,2
"215147",149,0.550341200000048,6,"n",0,"BlockF_1",2,"B",1,2,2
"215147",202,0.574120100000073,6,"b",0,"BlockN_1",3,"A",2,1,2
"215147",206,1.55113960000017,6,"n",1,"BlockN_1",3,"B",1,2,2
"215147",209,1.44850469999983,6,"n",1,"BlockN_1",3,"B",1,2,2
"215147",211,0.654192299999977,6,"b",0,"BlockN_1",3,"B",1,2,2
"215147",212,1.24355280000009,6,"n",1,"BlockN_1",3,"B",1,2,2
"215147",213,2.32343439999977,6,"n",1,"BlockN_1",3,"B",1,2,2
"215147",215,0.828840299999683,6,"n",1,"BlockN_1",3,"A",2,1,2
"215147",216,0.642407800000001,6,"b",0,"BlockN_1",3,"A",2,1,2
"215147",217,0.737491200000022,6,"b",0,"BlockN_1",3,"A",2,1,2
"215147",219,2.34076069999992,6,"b",0,"BlockN_1",3,"A",2,1,2
"215147",224,0.577773699999852,6,"b",0,"BlockN_1",3,"A",2,1,2
"215147",226,0.822539900000265,6,"b",1,"BlockF_1",2,"A",2,1,2
"215147",227,0.86121329999969,6,"b",1,"BlockF_1",2,"B",1,2,2
"215147",228,0.610633400000097,6,"b",1,"BlockF_1",2,"B",1,2,2
"215147",229,0.70720110000002,6,"n",0,"BlockF_1",2,"A",2,1,2
"215147",230,0.622299000000112,6,"n",0,"BlockF_1",2,"B",1,2,2
"215147",234,0.801527799999803,6,"n",0,"BlockF_1",2,"A",2,1,2
"215147",236,0.688382199999978,6,"n",0,"BlockF_1",2,"A",2,1,2
"215147",238,0.442379399999936,6,"b",1,"BlockF_1",2,"B",1,2,2
"215147",239,0.545430000000124,6,"b",1,"BlockF_1",2,"B",1,2,2
"215147",241,0.455753700000059,6,"b",1,"BlockF_1",2,"B",1,2,2
"215147",243,0.763422100000298,6,"n",0,"BlockF_1",2,"A",2,1,2
"215147",244,0.516933800000061,6,"n",0,"BlockF_1",2,"A",2,1,2
"215147",249,0.592999500000133,6,"n",0,"BlockF_1",2,"A",2,1,2
"215147",305,0.762369900000067,6,"n",1,"BlockN_1",3,"A",2,1,2
"215147",307,1.55424300000004,6,"n",1,"BlockN_1",3,"B",1,2,2
"215147",309,1.12263489999987,6,"b",0,"BlockN_1",3,"B",1,2,2
"215147",310,1.14879610000025,6,"b",0,"BlockN_1",3,"A",2,1,2
"215147",311,1.46452060000001,6,"b",0,"BlockN_1",3,"A",2,1,2
"215147",313,1.1358310999999,6,"n",1,"BlockN_1",3,"B",1,2,2
"215147",314,0.843760599999769,6,"n",1,"BlockN_1",3,"A",2,1,2
"215147",315,1.34490649999998,6,"n",1,"BlockN_1",3,"B",1,2,2
"215147",319,0.756530900000143,6,"n",1,"BlockN_1",3,"A",2,1,2
"215147",320,0.830267800000001,6,"n",1,"BlockN_1",3,"B",1,2,2
"215147",322,2.39347940000016,6,"n",1,"BlockN_1",3,"A",2,1,2
"215147",323,0.546004799999992,6,"n",1,"BlockN_1",3,"B",1,2,2
"215147",324,0.564831300000151,6,"n",1,"BlockN_1",3,"B",1,2,2
"215147",326,0.798573800000213,6,"n",0,"BlockF_1",2,"A",2,1,2
"215147",330,0.815728900000067,6,"b",1,"BlockF_1",2,"B",1,2,2
"215147",331,0.855430199999773,6,"n",0,"BlockF_1",2,"A",2,1,2
"215147",332,0.89447969999992,6,"n",0,"BlockF_1",2,"B",1,2,2
"215147",334,0.796288000000004,6,"n",0,"BlockF_1",2,"A",2,1,2
"215147",336,0.670226400000047,6,"b",1,"BlockF_1",2,"B",1,2,2
"215147",339,0.865233800000169,6,"n",0,"BlockF_1",2,"A",2,1,2
"215147",341,0.702971300000172,6,"n",0,"BlockF_1",2,"A",2,1,2
"215147",343,0.615615599999728,6,"b",1,"BlockF_1",2,"B",1,2,2
"215147",344,1.28806440000017,6,"n",0,"BlockF_1",2,"A",2,1,2
"215147",349,0.61318859999983,6,"n",0,"BlockF_1",2,"B",1,2,2
"243315",2,0.928277699999853,6,"f",0,"BlockFvN",1,"A",2,1,2
"243315",6,0.696814300000369,6,"e",1,"BlockFvN",1,"B",1,2,2
"243315",9,0.789788000000044,6,"e",1,"BlockFvN",1,"B",1,2,2
"243315",11,0.838179899999886,6,"e",1,"BlockFvN",1,"B",1,2,2
"243315",12,0.891965799999525,6,"e",1,"BlockFvN",1,"B",1,2,2
"243315",13,0.848727799999324,6,"e",1,"BlockFvN",1,"B",1,2,2
"243315",15,0.779314200000044,6,"e",1,"BlockFvN",1,"A",2,1,2
"243315",16,0.916533800000252,6,"e",1,"BlockFvN",1,"A",2,1,2
"243315",17,1.0473807999997,6,"e",1,"BlockFvN",1,"A",2,1,2
"243315",24,1.29388000000017,6,"f",0,"BlockFvN",1,"A",2,1,2
"243315",51,0.715692499999932,6,"e",1,"BlockFvN",1,"B",1,2,2
"243315",55,0.720814599999358,6,"e",1,"BlockFvN",1,"A",2,1,2
"243315",56,0.701404399999774,6,"e",1,"BlockFvN",1,"B",1,2,2
"243315",58,0.834332999999788,6,"e",1,"BlockFvN",1,"B",1,2,2
"243315",59,0.711784299999636,6,"e",1,"BlockFvN",1,"A",2,1,2
"243315",60,0.805543700000271,6,"e",1,"BlockFvN",1,"B",1,2,2
"243315",64,0.566818899999816,6,"e",1,"BlockFvN",1,"A",2,1,2
"243315",65,0.823677600000337,6,"e",1,"BlockFvN",1,"A",2,1,2
"243315",66,0.703524199999265,6,"e",1,"BlockFvN",1,"A",2,1,2
"243315",68,0.870327200000247,6,"e",1,"BlockFvN",1,"A",2,1,2
"243315",69,0.82735059999959,6,"e",1,"BlockFvN",1,"B",1,2,2
"243315",70,0.817696900000556,6,"e",1,"BlockFvN",1,"B",1,2,2
"243315",74,1.11791670000002,6,"f",0,"BlockFvN",1,"A",2,1,2
"243315",75,0.792808700000023,6,"e",1,"BlockFvN",1,"B",1,2,2
"243315",105,0.679549800000132,6,"f",0,"BlockFvN",1,"A",2,1,2
"243315",107,0.636125199999697,6,"e",1,"BlockFvN",1,"B",1,2,2
"243315",109,0.740033099999891,6,"e",1,"BlockFvN",1,"B",1,2,2
"243315",110,0.814680400000725,6,"f",0,"BlockFvN",1,"A",2,1,2
"243315",111,0.550259699999515,6,"e",1,"BlockFvN",1,"A",2,1,2
"243315",113,1.02574860000004,6,"f",0,"BlockFvN",1,"B",1,2,2
"243315",114,0.705102099999749,6,"e",1,"BlockFvN",1,"A",2,1,2
"243315",115,0.700695600000472,6,"e",1,"BlockFvN",1,"B",1,2,2
"243315",119,0.85047890000078,6,"e",1,"BlockFvN",1,"A",2,1,2
"243315",120,0.696636000000581,6,"e",1,"BlockFvN",1,"B",1,2,2
"243315",122,0.698976100000436,6,"e",1,"BlockFvN",1,"A",2,1,2
"243315",123,0.695619499999339,6,"e",1,"BlockFvN",1,"B",1,2,2
"243315",124,0.786765699999705,6,"e",1,"BlockFvN",1,"B",1,2,2
"243315",151,0.504156300000432,6,"e",1,"BlockFvN",1,"A",2,1,2
"243315",153,0.521030599999904,6,"e",1,"BlockFvN",1,"B",1,2,2
"243315",154,0.622047200000452,6,"f",0,"BlockFvN",1,"B",1,2,2
"243315",155,0.795566400000098,6,"f",0,"BlockFvN",1,"A",2,1,2
"243315",157,0.76837549999982,6,"e",1,"BlockFvN",1,"B",1,2,2
"243315",159,0.998704399999951,6,"e",1,"BlockFvN",1,"A",2,1,2
"243315",162,0.984140599999591,6,"e",1,"BlockFvN",1,"A",2,1,2
"243315",163,0.713443499999812,6,"e",1,"BlockFvN",1,"A",2,1,2
"243315",166,0.787953600000037,6,"e",1,"BlockFvN",1,"B",1,2,2
"243315",168,0.615211600000293,6,"e",1,"BlockFvN",1,"A",2,1,2
"243315",170,0.672870700000203,6,"f",0,"BlockFvN",1,"A",2,1,2
"243315",173,0.574688000000606,6,"e",1,"BlockFvN",1,"B",1,2,2
"243315",175,0.504933700000038,6,"e",1,"BlockFvN",1,"B",1,2,2
"243315",2,0.796337499999936,6,"b",1,"BlockF_1",2,"A",2,1,2
"243315",4,0.92654869999933,6,"b",1,"BlockF_1",2,"B",1,2,2
"243315",5,1.13851599999998,6,"b",1,"BlockF_1",2,"A",2,1,2
"243315",6,0.507851899999878,6,"b",1,"BlockF_1",2,"B",1,2,2
"243315",9,1.52493009999944,6,"b",1,"BlockF_1",2,"B",1,2,2
"243315",11,0.596707400000014,6,"b",1,"BlockF_1",2,"B",1,2,2
"243315",12,0.598590499999773,6,"b",1,"BlockF_1",2,"B",1,2,2
"243315",13,0.469325899999603,6,"b",1,"BlockF_1",2,"B",1,2,2
"243315",15,0.575945800000227,6,"b",1,"BlockF_1",2,"A",2,1,2
"243315",16,0.623254600000109,6,"b",1,"BlockF_1",2,"A",2,1,2
"243315",17,0.558648000000176,6,"b",1,"BlockF_1",2,"A",2,1,2
"243315",19,1.04591139999957,6,"n",0,"BlockF_1",2,"A",2,1,2
"243315",24,0.683601300000191,6,"n",0,"BlockF_1",2,"A",2,1,2
"243315",26,0.683205499999531,6,"n",1,"BlockN_1",3,"A",2,1,2
"243315",27,0.615326299999651,6,"n",1,"BlockN_1",3,"B",1,2,2
"243315",28,0.550044200000229,6,"n",1,"BlockN_1",3,"B",1,2,2
"243315",29,1.00039549999929,6,"n",1,"BlockN_1",3,"A",2,1,2
"243315",30,1.22291620000033,6,"n",1,"BlockN_1",3,"B",1,2,2
"243315",34,0.634093600000597,6,"b",0,"BlockN_1",3,"A",2,1,2
"243315",36,1.13930509999955,6,"n",1,"BlockN_1",3,"A",2,1,2
"243315",38,0.615426299999854,6,"n",1,"BlockN_1",3,"B",1,2,2
"243315",39,0.965067400000407,6,"n",1,"BlockN_1",3,"B",1,2,2
"243315",41,0.55442740000035,6,"n",1,"BlockN_1",3,"B",1,2,2
"243315",43,0.882653300000129,6,"n",1,"BlockN_1",3,"B",1,2,2
"243315",44,0.791668900000332,6,"n",1,"BlockN_1",3,"A",2,1,2
"243315",49,0.66322990000026,6,"b",0,"BlockN_1",3,"A",2,1,2
"243315",105,0.691725799999404,6,"n",0,"BlockF_1",2,"A",2,1,2
"243315",107,1.45856929999991,6,"b",1,"BlockF_1",2,"B",1,2,2
"243315",109,0.59170819999963,6,"b",1,"BlockF_1",2,"B",1,2,2
"243315",110,1.15233669999998,6,"n",0,"BlockF_1",2,"A",2,1,2
"243315",111,0.809254099999634,6,"n",0,"BlockF_1",2,"A",2,1,2
"243315",113,0.559150399999453,6,"b",1,"BlockF_1",2,"B",1,2,2
"243315",114,1.0734207000005,6,"n",0,"BlockF_1",2,"A",2,1,2
"243315",115,0.606292400000711,6,"b",1,"BlockF_1",2,"B",1,2,2
"243315",119,0.826596200000495,6,"n",0,"BlockF_1",2,"A",2,1,2
"243315",120,0.722986400000082,6,"n",0,"BlockF_1",2,"B",1,2,2
"243315",122,0.4467508000007,6,"b",1,"BlockF_1",2,"A",2,1,2
"243315",123,0.581019599999308,6,"b",1,"BlockF_1",2,"B",1,2,2
"243315",124,0.54907379999986,6,"b",1,"BlockF_1",2,"B",1,2,2
"243315",126,1.00382019999961,6,"b",0,"BlockN_1",3,"A",2,1,2
"243315",127,0.746830900000532,6,"n",1,"BlockN_1",3,"B",1,2,2
"243315",130,0.511177099999259,6,"n",1,"BlockN_1",3,"B",1,2,2
"243315",131,0.787884500000473,6,"b",0,"BlockN_1",3,"A",2,1,2
"243315",132,0.698942600000009,6,"b",0,"BlockN_1",3,"B",1,2,2
"243315",134,0.68970520000039,6,"b",0,"BlockN_1",3,"A",2,1,2
"243315",136,0.367968099999416,6,"n",1,"BlockN_1",3,"B",1,2,2
"243315",139,0.862666899999567,6,"b",0,"BlockN_1",3,"A",2,1,2
"243315",141,0.641510299999936,6,"b",0,"BlockN_1",3,"A",2,1,2
"243315",143,1.03271259999929,6,"n",1,"BlockN_1",3,"B",1,2,2
"243315",144,1.20807689999947,6,"n",1,"BlockN_1",3,"A",2,1,2
"243315",146,1.69134149999991,6,"b",0,"BlockN_1",3,"B",1,2,2
"243315",149,0.695209499999692,6,"n",1,"BlockN_1",3,"B",1,2,2
"243315",202,0.652617599999758,6,"n",0,"BlockF_1",2,"A",2,1,2
"243315",206,0.50784079999994,6,"b",1,"BlockF_1",2,"B",1,2,2
"243315",209,0.54128319999927,6,"b",1,"BlockF_1",2,"B",1,2,2
"243315",211,0.562001100000089,6,"b",1,"BlockF_1",2,"B",1,2,2
"243315",212,0.484784600000239,6,"b",1,"BlockF_1",2,"B",1,2,2
"243315",213,0.423730800000158,6,"b",1,"BlockF_1",2,"B",1,2,2
"243315",215,0.629595899999913,6,"n",0,"BlockF_1",2,"A",2,1,2
"243315",216,0.740975300000173,6,"n",0,"BlockF_1",2,"A",2,1,2
"243315",217,0.672723800000313,6,"n",0,"BlockF_1",2,"A",2,1,2
"243315",219,0.605533699999796,6,"n",0,"BlockF_1",2,"A",2,1,2
"243315",224,0.869567300000199,6,"n",0,"BlockF_1",2,"A",2,1,2
"243315",226,0.833728000000519,6,"n",1,"BlockN_1",3,"A",2,1,2
"243315",227,0.69577819999995,6,"n",1,"BlockN_1",3,"B",1,2,2
"243315",228,0.51600260000032,6,"b",0,"BlockN_1",3,"B",1,2,2
"243315",229,1.06526759999997,6,"b",0,"BlockN_1",3,"A",2,1,2
"243315",230,0.645115299999816,6,"n",1,"BlockN_1",3,"B",1,2,2
"243315",234,1.0937727999999,6,"n",1,"BlockN_1",3,"A",2,1,2
"243315",236,0.705214499999784,6,"b",0,"BlockN_1",3,"A",2,1,2
"243315",238,0.860574799999995,6,"n",1,"BlockN_1",3,"B",1,2,2
"243315",239,0.833324000000175,6,"n",1,"BlockN_1",3,"B",1,2,2
"243315",241,0.727357499999925,6,"n",1,"BlockN_1",3,"B",1,2,2
"243315",243,0.674391599999581,6,"b",0,"BlockN_1",3,"A",2,1,2
"243315",244,0.59025389999988,6,"b",0,"BlockN_1",3,"A",2,1,2
"243315",249,0.682280300000457,6,"b",0,"BlockN_1",3,"A",2,1,2
"243315",305,0.659314900000027,6,"n",0,"BlockF_1",2,"A",2,1,2
"243315",307,1.03861030000007,6,"b",1,"BlockF_1",2,"B",1,2,2
"243315",309,0.602292800000214,6,"b",1,"BlockF_1",2,"B",1,2,2
"243315",310,0.841622799998731,6,"n",0,"BlockF_1",2,"A",2,1,2
"243315",311,0.703037700001005,6,"n",0,"BlockF_1",2,"A",2,1,2
"243315",313,0.484314900000754,6,"b",1,"BlockF_1",2,"B",1,2,2
"243315",314,1.17737329999909,6,"b",1,"BlockF_1",2,"A",2,1,2
"243315",315,0.434222900001259,6,"b",1,"BlockF_1",2,"B",1,2,2
"243315",319,1.46370190000016,6,"b",1,"BlockF_1",2,"A",2,1,2
"243315",320,0.757514299999457,6,"b",1,"BlockF_1",2,"B",1,2,2
"243315",322,0.734505099999296,6,"b",1,"BlockF_1",2,"A",2,1,2
"243315",323,0.616989099999046,6,"b",1,"BlockF_1",2,"B",1,2,2
"243315",324,0.536588599999959,6,"b",1,"BlockF_1",2,"B",1,2,2
"243315",326,0.520991800000047,6,"b",0,"BlockN_1",3,"A",2,1,2
"243315",330,0.55061200000091,6,"n",1,"BlockN_1",3,"B",1,2,2
"243315",331,0.649091900000712,6,"b",0,"BlockN_1",3,"A",2,1,2
"243315",332,0.725426900000457,6,"n",1,"BlockN_1",3,"B",1,2,2
"243315",334,0.453263800000059,6,"n",1,"BlockN_1",3,"A",2,1,2
"243315",336,0.466019199999209,6,"n",1,"BlockN_1",3,"B",1,2,2
"243315",339,0.524670200000401,6,"b",0,"BlockN_1",3,"A",2,1,2
"243315",341,0.585087400000702,6,"b",0,"BlockN_1",3,"A",2,1,2
"243315",343,0.588363500000924,6,"b",0,"BlockN_1",3,"B",1,2,2
"243315",344,0.796201300001485,6,"b",0,"BlockN_1",3,"A",2,1,2
"243315",349,0.785913399999117,6,"n",1,"BlockN_1",3,"B",1,2,2
"246835",2,1.01212440000018,6,"e",1,"BlockFvN",1,"A",2,1,2
"246835",6,0.629583800000546,6,"e",1,"BlockFvN",1,"B",1,2,2
"246835",9,0.602949099999933,6,"e",1,"BlockFvN",1,"B",1,2,2
"246835",11,1.02570389999983,6,"e",1,"BlockFvN",1,"B",1,2,2
"246835",12,0.640232799999467,6,"e",1,"BlockFvN",1,"B",1,2,2
"246835",13,0.70334880000064,6,"f",0,"BlockFvN",1,"B",1,2,2
"246835",15,0.744756800000687,6,"f",0,"BlockFvN",1,"A",2,1,2
"246835",16,0.897088699999586,6,"e",1,"BlockFvN",1,"A",2,1,2
"246835",17,0.630554700000175,6,"f",0,"BlockFvN",1,"A",2,1,2
"246835",24,0.649642100000165,6,"f",0,"BlockFvN",1,"A",2,1,2
"246835",51,0.616215000000011,6,"e",1,"BlockFvN",1,"B",1,2,2
"246835",55,0.565165400000296,6,"e",1,"BlockFvN",1,"A",2,1,2
"246835",56,0.423869299999751,6,"e",1,"BlockFvN",1,"B",1,2,2
"246835",58,0.593320800000583,6,"e",1,"BlockFvN",1,"B",1,2,2
"246835",59,0.545833900000616,6,"e",1,"BlockFvN",1,"A",2,1,2
"246835",60,0.452102700000069,6,"e",1,"BlockFvN",1,"B",1,2,2
"246835",64,0.774971299999379,6,"f",0,"BlockFvN",1,"A",2,1,2
"246835",65,0.592220499999712,6,"f",0,"BlockFvN",1,"A",2,1,2
"246835",66,0.912773500000185,6,"f",0,"BlockFvN",1,"A",2,1,2
"246835",68,0.617170500000611,6,"f",0,"BlockFvN",1,"A",2,1,2
"246835",69,0.53580090000014,6,"e",1,"BlockFvN",1,"B",1,2,2
"246835",70,0.634213999999702,6,"e",1,"BlockFvN",1,"B",1,2,2
"246835",74,1.16310049999993,6,"e",1,"BlockFvN",1,"A",2,1,2
"246835",75,1.39852960000007,6,"f",0,"BlockFvN",1,"B",1,2,2
"246835",105,0.606279599999652,6,"e",1,"BlockFvN",1,"A",2,1,2
"246835",107,0.861748100000113,6,"e",1,"BlockFvN",1,"B",1,2,2
"246835",109,0.580313400000705,6,"e",1,"BlockFvN",1,"B",1,2,2
"246835",110,0.565690899999936,6,"f",0,"BlockFvN",1,"A",2,1,2
"246835",111,0.662086199999976,6,"e",1,"BlockFvN",1,"A",2,1,2
"246835",113,0.434934999999314,6,"e",1,"BlockFvN",1,"B",1,2,2
"246835",114,1.06497639999998,6,"e",1,"BlockFvN",1,"A",2,1,2
"246835",115,0.743222699999933,6,"e",1,"BlockFvN",1,"B",1,2,2
"246835",119,1.92949899999985,6,"e",1,"BlockFvN",1,"A",2,1,2
"246835",120,0.661198099999638,6,"e",1,"BlockFvN",1,"B",1,2,2
"246835",122,0.754215799999656,6,"f",0,"BlockFvN",1,"A",2,1,2
"246835",123,0.635239499999443,6,"e",1,"BlockFvN",1,"B",1,2,2
"246835",124,0.61717679999947,6,"e",1,"BlockFvN",1,"B",1,2,2
"246835",151,0.729709199999888,6,"f",0,"BlockFvN",1,"A",2,1,2
"246835",153,0.546495900000082,6,"e",1,"BlockFvN",1,"B",1,2,2
"246835",154,0.43727250000029,6,"e",1,"BlockFvN",1,"B",1,2,2
"246835",155,0.603703799999494,6,"f",0,"BlockFvN",1,"A",2,1,2
"246835",157,0.65406079999957,6,"e",1,"BlockFvN",1,"B",1,2,2
"246835",159,0.39940260000003,6,"e",1,"BlockFvN",1,"A",2,1,2
"246835",162,0.831395199999861,6,"e",1,"BlockFvN",1,"A",2,1,2
"246835",163,0.758135799999764,6,"e",1,"BlockFvN",1,"A",2,1,2
"246835",166,0.503058799999963,6,"e",1,"BlockFvN",1,"B",1,2,2
"246835",168,0.493765900000653,6,"e",1,"BlockFvN",1,"A",2,1,2
"246835",170,0.615279999999984,6,"f",0,"BlockFvN",1,"A",2,1,2
"246835",173,0.825375399999757,6,"e",1,"BlockFvN",1,"B",1,2,2
"246835",175,0.503553999999895,6,"e",1,"BlockFvN",1,"B",1,2,2
"246835",2,1.13889219999965,6,"b",1,"BlockF_1",2,"A",2,1,2
"246835",4,0.828427200000078,6,"b",1,"BlockF_1",2,"B",1,2,2
"246835",5,0.89855340000031,6,"b",1,"BlockF_1",2,"A",2,1,2
"246835",6,0.711981899999955,6,"b",1,"BlockF_1",2,"B",1,2,2
"246835",9,0.454036299999643,6,"b",1,"BlockF_1",2,"B",1,2,2
"246835",11,0.545546399999694,6,"b",1,"BlockF_1",2,"B",1,2,2
"246835",12,0.467565200000536,6,"b",1,"BlockF_1",2,"B",1,2,2
"246835",13,0.839148799999748,6,"n",0,"BlockF_1",2,"B",1,2,2
"246835",15,0.70711830000073,6,"n",0,"BlockF_1",2,"A",2,1,2
"246835",16,0.495191300000442,6,"b",1,"BlockF_1",2,"A",2,1,2
"246835",17,0.947439800000211,6,"b",1,"BlockF_1",2,"A",2,1,2
"246835",19,0.517564700000548,6,"n",0,"BlockF_1",2,"A",2,1,2
"246835",24,0.542416199999934,6,"n",0,"BlockF_1",2,"A",2,1,2
"246835",26,1.95650569999998,6,"n",1,"BlockN_1",3,"A",2,1,2
"246835",27,1.08726449999995,6,"n",1,"BlockN_1",3,"B",1,2,2
"246835",28,0.476873799999339,6,"n",1,"BlockN_1",3,"B",1,2,2
"246835",29,0.513986299999488,6,"n",1,"BlockN_1",3,"A",2,1,2
"246835",30,0.533294300000307,6,"n",1,"BlockN_1",3,"B",1,2,2
"246835",34,0.69979179999973,6,"b",0,"BlockN_1",3,"A",2,1,2
"246835",36,0.842090800000733,6,"n",1,"BlockN_1",3,"A",2,1,2
"246835",38,0.526803699999618,6,"n",1,"BlockN_1",3,"B",1,2,2
"246835",39,0.546844600000441,6,"n",1,"BlockN_1",3,"B",1,2,2
"246835",41,0.457233800000722,6,"n",1,"BlockN_1",3,"B",1,2,2
"246835",43,0.626776000000064,6,"n",1,"BlockN_1",3,"B",1,2,2
"246835",44,1.64970690000064,6,"n",1,"BlockN_1",3,"A",2,1,2
"246835",49,0.894676900000377,6,"b",0,"BlockN_1",3,"A",2,1,2
"246835",105,0.446443500000896,6,"b",1,"BlockF_1",2,"A",2,1,2
"246835",107,0.631485100000646,6,"b",1,"BlockF_1",2,"B",1,2,2
"246835",109,0.548783500000354,6,"b",1,"BlockF_1",2,"B",1,2,2
"246835",110,0.582409999999072,6,"n",0,"BlockF_1",2,"A",2,1,2
"246835",111,0.48855420000109,6,"b",1,"BlockF_1",2,"A",2,1,2
"246835",113,0.456670400000803,6,"b",1,"BlockF_1",2,"B",1,2,2
"246835",114,0.653593200000614,6,"b",1,"BlockF_1",2,"A",2,1,2
"246835",115,0.489467400000649,6,"b",1,"BlockF_1",2,"B",1,2,2
"246835",119,0.743193899999824,6,"b",1,"BlockF_1",2,"A",2,1,2
"246835",120,0.560900300000867,6,"b",1,"BlockF_1",2,"B",1,2,2
"246835",122,0.66030850000061,6,"n",0,"BlockF_1",2,"A",2,1,2
"246835",123,0.627083600000333,6,"b",1,"BlockF_1",2,"B",1,2,2
"246835",124,0.720682499999384,6,"b",1,"BlockF_1",2,"B",1,2,2
"246835",126,1.12837690000015,6,"b",0,"BlockN_1",3,"A",2,1,2
"246835",127,0.627809100000377,6,"n",1,"BlockN_1",3,"B",1,2,2
"246835",130,0.518898600001194,6,"n",1,"BlockN_1",3,"B",1,2,2
"246835",131,0.457750899999155,6,"n",1,"BlockN_1",3,"A",2,1,2
"246835",132,0.510930599999483,6,"b",0,"BlockN_1",3,"B",1,2,2
"246835",134,0.499991399999999,6,"n",1,"BlockN_1",3,"A",2,1,2
"246835",136,0.511472100000901,6,"n",1,"BlockN_1",3,"B",1,2,2
"246835",139,1.03324179999981,6,"n",1,"BlockN_1",3,"A",2,1,2
"246835",141,0.569866800000455,6,"b",0,"BlockN_1",3,"A",2,1,2
"246835",143,0.654356099999859,6,"n",1,"BlockN_1",3,"B",1,2,2
"246835",144,0.492086700000073,6,"n",1,"BlockN_1",3,"A",2,1,2
"246835",146,0.981598200000008,6,"n",1,"BlockN_1",3,"B",1,2,2
"246835",149,0.698570499998823,6,"n",1,"BlockN_1",3,"B",1,2,2
"246835",202,0.574862899999061,6,"b",1,"BlockF_1",2,"A",2,1,2
"246835",206,0.410388500000408,6,"b",1,"BlockF_1",2,"B",1,2,2
"246835",209,0.589736500000072,6,"b",1,"BlockF_1",2,"B",1,2,2
"246835",211,0.674887499999386,6,"n",0,"BlockF_1",2,"B",1,2,2
"246835",212,0.445862299999135,6,"b",1,"BlockF_1",2,"B",1,2,2
"246835",213,0.517218599999978,6,"b",1,"BlockF_1",2,"B",1,2,2
"246835",215,0.651837700001124,6,"b",1,"BlockF_1",2,"A",2,1,2
"246835",216,0.457258000000365,6,"b",1,"BlockF_1",2,"A",2,1,2
"246835",217,0.543890400000237,6,"b",1,"BlockF_1",2,"A",2,1,2
"246835",219,0.743101399999432,6,"n",0,"BlockF_1",2,"A",2,1,2
"246835",224,0.423206200001005,6,"b",1,"BlockF_1",2,"A",2,1,2
"246835",226,0.886474099999759,6,"n",1,"BlockN_1",3,"A",2,1,2
"246835",227,0.45865959999901,6,"n",1,"BlockN_1",3,"B",1,2,2
"246835",228,0.415922000000137,6,"n",1,"BlockN_1",3,"B",1,2,2
"246835",229,0.408562300000995,6,"n",1,"BlockN_1",3,"A",2,1,2
"246835",230,0.317865299999539,6,"n",1,"BlockN_1",3,"B",1,2,2
"246835",234,0.604741600000125,6,"b",0,"BlockN_1",3,"A",2,1,2
"246835",236,0.540304700001798,6,"n",1,"BlockN_1",3,"A",2,1,2
"246835",238,0.637134200000219,6,"n",1,"BlockN_1",3,"B",1,2,2
"246835",239,0.538365600001271,6,"n",1,"BlockN_1",3,"B",1,2,2
"246835",241,0.526838199999474,6,"n",1,"BlockN_1",3,"B",1,2,2
"246835",243,0.662992200001099,6,"n",1,"BlockN_1",3,"A",2,1,2
"246835",244,0.563552599998729,6,"n",1,"BlockN_1",3,"A",2,1,2
"246835",249,1.26113579999947,6,"b",0,"BlockN_1",3,"A",2,1,2
"246835",305,0.631935400000657,6,"b",1,"BlockF_1",2,"A",2,1,2
"246835",307,0.580932500000927,6,"n",0,"BlockF_1",2,"B",1,2,2
"246835",309,0.709988999999041,6,"b",1,"BlockF_1",2,"B",1,2,2
"246835",310,1.60054980000132,6,"n",0,"BlockF_1",2,"A",2,1,2
"246835",311,0.488635499999873,6,"b",1,"BlockF_1",2,"A",2,1,2
"246835",313,0.809254300000248,6,"b",1,"BlockF_1",2,"B",1,2,2
"246835",314,0.560548400000698,6,"b",1,"BlockF_1",2,"A",2,1,2
"246835",315,0.849064799998814,6,"b",1,"BlockF_1",2,"B",1,2,2
"246835",319,0.8788687999986,6,"b",1,"BlockF_1",2,"A",2,1,2
"246835",320,0.532236600000033,6,"b",1,"BlockF_1",2,"B",1,2,2
"246835",322,0.668638299999657,6,"n",0,"BlockF_1",2,"A",2,1,2
"246835",323,0.60196519999954,6,"b",1,"BlockF_1",2,"B",1,2,2
"246835",324,0.793875000001208,6,"b",1,"BlockF_1",2,"B",1,2,2
"246835",326,0.898654800001168,6,"b",0,"BlockN_1",3,"A",2,1,2
"246835",330,0.510041100000308,6,"n",1,"BlockN_1",3,"B",1,2,2
"246835",331,0.594076999999743,6,"n",1,"BlockN_1",3,"A",2,1,2
"246835",332,0.915459100000589,6,"n",1,"BlockN_1",3,"B",1,2,2
"246835",334,0.454869499999404,6,"n",1,"BlockN_1",3,"A",2,1,2
"246835",336,3.83962919999976,6,"n",1,"BlockN_1",3,"B",1,2,2
"246835",339,1.09503760000007,6,"n",1,"BlockN_1",3,"A",2,1,2
"246835",341,2.43898420000005,6,"n",1,"BlockN_1",3,"A",2,1,2
"246835",343,0.584059800001342,6,"n",1,"BlockN_1",3,"B",1,2,2
"246835",344,0.424914599998374,6,"n",1,"BlockN_1",3,"A",2,1,2
"246835",349,0.662704899999881,6,"n",1,"BlockN_1",3,"B",1,2,2
"252899",2,1.1383977000005,6,"f",0,"BlockFvN",1,"A",2,1,2
"252899",6,0.624563000001217,6,"e",1,"BlockFvN",1,"B",1,2,2
"252899",9,0.815572000001339,6,"e",1,"BlockFvN",1,"B",1,2,2
"252899",11,0.766984500000035,6,"e",1,"BlockFvN",1,"B",1,2,2
"252899",12,1.54429870000058,6,"e",1,"BlockFvN",1,"B",1,2,2
"252899",13,1.01110309999967,6,"e",1,"BlockFvN",1,"B",1,2,2
"252899",15,0.730735399998593,6,"e",1,"BlockFvN",1,"A",2,1,2
"252899",16,0.93333210000128,6,"e",1,"BlockFvN",1,"A",2,1,2
"252899",17,0.711329200001273,6,"e",1,"BlockFvN",1,"A",2,1,2
"252899",24,0.748450700000831,6,"f",0,"BlockFvN",1,"A",2,1,2
"252899",51,0.52728930000012,6,"e",1,"BlockFvN",1,"B",1,2,2
"252899",55,0.672259699998904,6,"e",1,"BlockFvN",1,"A",2,1,2
"252899",56,1.10130159999972,6,"e",1,"BlockFvN",1,"B",1,2,2
"252899",58,0.670473599999241,6,"e",1,"BlockFvN",1,"B",1,2,2
"252899",59,3.01725699999952,6,"e",1,"BlockFvN",1,"A",2,1,2
"252899",60,1.21136850000039,6,"f",0,"BlockFvN",1,"B",1,2,2
"252899",64,0.933637400001317,6,"e",1,"BlockFvN",1,"A",2,1,2
"252899",65,1.19190259999959,6,"f",0,"BlockFvN",1,"A",2,1,2
"252899",66,1.08841910000046,6,"e",1,"BlockFvN",1,"A",2,1,2
"252899",68,0.77013050000096,6,"e",1,"BlockFvN",1,"A",2,1,2
"252899",69,1.56442310000057,6,"f",0,"BlockFvN",1,"B",1,2,2
"252899",70,1.19063119999919,6,"e",1,"BlockFvN",1,"B",1,2,2
"252899",74,0.792044699999678,6,"e",1,"BlockFvN",1,"A",2,1,2
"252899",75,1.31043000000136,6,"f",0,"BlockFvN",1,"B",1,2,2
"252899",105,0.728526500000953,6,"f",0,"BlockFvN",1,"A",2,1,2
"252899",107,0.768851000000723,6,"f",0,"BlockFvN",1,"B",1,2,2
"252899",109,0.600491199998942,6,"e",1,"BlockFvN",1,"B",1,2,2
"252899",110,0.759677399999418,6,"f",0,"BlockFvN",1,"A",2,1,2
"252899",111,0.72081419999995,6,"e",1,"BlockFvN",1,"A",2,1,2
"252899",113,0.96940750000067,6,"e",1,"BlockFvN",1,"B",1,2,2
"252899",114,0.875006199999916,6,"f",0,"BlockFvN",1,"A",2,1,2
"252899",115,0.688496899998427,6,"e",1,"BlockFvN",1,"B",1,2,2
"252899",119,0.735050000001138,6,"e",1,"BlockFvN",1,"A",2,1,2
"252899",120,0.648689100000411,6,"e",1,"BlockFvN",1,"B",1,2,2
"252899",122,0.806018999999651,6,"e",1,"BlockFvN",1,"A",2,1,2
"252899",123,0.60496239999884,6,"e",1,"BlockFvN",1,"B",1,2,2
"252899",124,0.6043995,6,"e",1,"BlockFvN",1,"B",1,2,2
"252899",151,0.769783800000369,6,"e",1,"BlockFvN",1,"A",2,1,2
"252899",153,0.598640500000329,6,"e",1,"BlockFvN",1,"B",1,2,2
"252899",154,0.727208099999189,6,"e",1,"BlockFvN",1,"B",1,2,2
"252899",155,0.481218299999455,6,"e",1,"BlockFvN",1,"A",2,1,2
"252899",157,1.07889330000035,6,"f",0,"BlockFvN",1,"B",1,2,2
"252899",159,0.950257700000293,6,"f",0,"BlockFvN",1,"A",2,1,2
"252899",162,1.12206909999986,6,"e",1,"BlockFvN",1,"A",2,1,2
"252899",163,0.797229699999662,6,"e",1,"BlockFvN",1,"A",2,1,2
"252899",166,1.18343669999922,6,"f",0,"BlockFvN",1,"B",1,2,2
"252899",168,0.871441299999788,6,"e",1,"BlockFvN",1,"A",2,1,2
"252899",170,0.740982700001041,6,"f",0,"BlockFvN",1,"A",2,1,2
"252899",173,1.68972639999993,6,"e",1,"BlockFvN",1,"B",1,2,2
"252899",175,0.95618149999973,6,"f",0,"BlockFvN",1,"B",1,2,2
"252899",2,0.843608499999391,6,"n",0,"BlockF_1",2,"A",2,1,2
"252899",4,1.02232819999881,6,"b",1,"BlockF_1",2,"B",1,2,2
"252899",5,0.829240799999752,6,"n",0,"BlockF_1",2,"A",2,1,2
"252899",6,0.772870600001625,6,"b",1,"BlockF_1",2,"B",1,2,2
"252899",9,0.647412000000259,6,"b",1,"BlockF_1",2,"B",1,2,2
"252899",11,0.559132200000022,6,"b",1,"BlockF_1",2,"B",1,2,2
"252899",12,0.767867099999421,6,"b",1,"BlockF_1",2,"B",1,2,2
"252899",13,0.617183099999238,6,"b",1,"BlockF_1",2,"B",1,2,2
"252899",15,0.616712499999267,6,"n",0,"BlockF_1",2,"A",2,1,2
"252899",16,0.648215799999889,6,"b",1,"BlockF_1",2,"A",2,1,2
"252899",17,1.20576929999879,6,"b",1,"BlockF_1",2,"A",2,1,2
"252899",19,0.685661299999992,6,"n",0,"BlockF_1",2,"A",2,1,2
"252899",24,0.871130400000766,6,"n",0,"BlockF_1",2,"A",2,1,2
"252899",26,0.833080599999448,6,"n",1,"BlockN_1",3,"A",2,1,2
"252899",27,0.855886100000134,6,"n",1,"BlockN_1",3,"B",1,2,2
"252899",28,0.619847500000105,6,"b",0,"BlockN_1",3,"B",1,2,2
"252899",29,1.05258160000085,6,"b",0,"BlockN_1",3,"A",2,1,2
"252899",30,0.681332800000746,6,"n",1,"BlockN_1",3,"B",1,2,2
"252899",34,0.961095099999511,6,"b",0,"BlockN_1",3,"A",2,1,2
"252899",36,1.19624900000053,6,"n",1,"BlockN_1",3,"A",2,1,2
"252899",38,0.697253600001204,6,"n",1,"BlockN_1",3,"B",1,2,2
"252899",39,0.51737250000042,6,"n",1,"BlockN_1",3,"B",1,2,2
"252899",41,0.676640300000145,6,"n",1,"BlockN_1",3,"B",1,2,2
"252899",43,0.982984999998735,6,"n",1,"BlockN_1",3,"B",1,2,2
"252899",44,1.06434179999997,6,"n",1,"BlockN_1",3,"A",2,1,2
"252899",49,1.31499079999958,6,"b",0,"BlockN_1",3,"A",2,1,2
"252899",105,0.761550900000657,6,"n",0,"BlockF_1",2,"A",2,1,2
"252899",107,1.27118719999999,6,"b",1,"BlockF_1",2,"B",1,2,2
"252899",109,0.761958900000536,6,"b",1,"BlockF_1",2,"B",1,2,2
"252899",110,1.57166850000067,6,"n",0,"BlockF_1",2,"A",2,1,2
"252899",111,1.26017820000015,6,"n",0,"BlockF_1",2,"A",2,1,2
"252899",113,0.807993399999759,6,"b",1,"BlockF_1",2,"B",1,2,2
"252899",114,1.00753149999946,6,"b",1,"BlockF_1",2,"A",2,1,2
"252899",115,1.05726270000014,6,"n",0,"BlockF_1",2,"B",1,2,2
"252899",119,1.01897929999905,6,"b",1,"BlockF_1",2,"A",2,1,2
"252899",120,1.33885889999874,6,"b",1,"BlockF_1",2,"B",1,2,2
"252899",122,1.46987650000119,6,"b",1,"BlockF_1",2,"A",2,1,2
"252899",123,0.859311000000162,6,"b",1,"BlockF_1",2,"B",1,2,2
"252899",124,0.786083599999984,6,"b",1,"BlockF_1",2,"B",1,2,2
"252899",126,1.34002250000049,6,"n",1,"BlockN_1",3,"A",2,1,2
"252899",127,0.573218499999712,6,"n",1,"BlockN_1",3,"B",1,2,2
"252899",130,0.700050999999803,6,"n",1,"BlockN_1",3,"B",1,2,2
"252899",131,0.870226900000489,6,"n",1,"BlockN_1",3,"A",2,1,2
"252899",132,0.588593000000401,6,"n",1,"BlockN_1",3,"B",1,2,2
"252899",134,0.570905699998548,6,"n",1,"BlockN_1",3,"A",2,1,2
"252899",136,1.06134390000079,6,"n",1,"BlockN_1",3,"B",1,2,2
"252899",139,1.8092187000002,6,"b",0,"BlockN_1",3,"A",2,1,2
"252899",141,0.509418600000572,6,"b",0,"BlockN_1",3,"A",2,1,2
"252899",143,0.846749800000907,6,"n",1,"BlockN_1",3,"B",1,2,2
"252899",144,0.933855400000539,6,"n",1,"BlockN_1",3,"A",2,1,2
"252899",146,1.20013259999905,6,"n",1,"BlockN_1",3,"B",1,2,2
"252899",149,0.731644700001198,6,"b",0,"BlockN_1",3,"B",1,2,2
"252899",202,0.59210929999972,6,"n",0,"BlockF_1",2,"A",2,1,2
"252899",206,0.637389299999995,6,"b",1,"BlockF_1",2,"B",1,2,2
"252899",209,1.00647570000001,6,"b",1,"BlockF_1",2,"B",1,2,2
"252899",211,0.685359699999026,6,"b",1,"BlockF_1",2,"B",1,2,2
"252899",212,0.698418600000878,6,"b",1,"BlockF_1",2,"B",1,2,2
"252899",213,0.567026700000497,6,"b",1,"BlockF_1",2,"B",1,2,2
"252899",215,0.585780199999135,6,"b",1,"BlockF_1",2,"A",2,1,2
"252899",216,0.923058600001241,6,"b",1,"BlockF_1",2,"A",2,1,2
"252899",217,0.847553100000368,6,"b",1,"BlockF_1",2,"A",2,1,2
"252899",219,0.704856799999106,6,"b",1,"BlockF_1",2,"A",2,1,2
"252899",224,1.26587349999863,6,"n",0,"BlockF_1",2,"A",2,1,2
"252899",226,0.809118999999555,6,"n",1,"BlockN_1",3,"A",2,1,2
"252899",227,0.768093099999533,6,"b",0,"BlockN_1",3,"B",1,2,2
"252899",228,0.664975900001082,6,"b",0,"BlockN_1",3,"B",1,2,2
"252899",229,1.03218829999969,6,"n",1,"BlockN_1",3,"A",2,1,2
"252899",230,0.613765500000227,6,"n",1,"BlockN_1",3,"B",1,2,2
"252899",234,1.54369840000072,6,"n",1,"BlockN_1",3,"A",2,1,2
"252899",236,0.905884399999195,6,"n",1,"BlockN_1",3,"A",2,1,2
"252899",238,0.634638800000175,6,"b",0,"BlockN_1",3,"B",1,2,2
"252899",239,0.665261899999678,6,"b",0,"BlockN_1",3,"B",1,2,2
"252899",241,0.969004599999607,6,"n",1,"BlockN_1",3,"B",1,2,2
"252899",243,1.61450499999955,6,"b",0,"BlockN_1",3,"A",2,1,2
"252899",244,0.934238100000584,6,"n",1,"BlockN_1",3,"A",2,1,2
"252899",249,1.53224020000016,6,"b",0,"BlockN_1",3,"A",2,1,2
"252899",305,0.645881999998892,6,"b",1,"BlockF_1",2,"A",2,1,2
"252899",307,0.710218800000803,6,"n",0,"BlockF_1",2,"B",1,2,2
"252899",309,0.593997399999353,6,"b",1,"BlockF_1",2,"B",1,2,2
"252899",310,0.786992599998484,6,"n",0,"BlockF_1",2,"A",2,1,2
"252899",311,0.907177199998841,6,"n",0,"BlockF_1",2,"A",2,1,2
"252899",313,0.671343500000148,6,"n",0,"BlockF_1",2,"B",1,2,2
"252899",314,0.717125400000441,6,"n",0,"BlockF_1",2,"A",2,1,2
"252899",315,0.855701800001043,6,"b",1,"BlockF_1",2,"B",1,2,2
"252899",319,0.61269959999845,6,"n",0,"BlockF_1",2,"A",2,1,2
"252899",320,0.580840599999647,6,"n",0,"BlockF_1",2,"B",1,2,2
"252899",322,1.38366150000002,6,"b",1,"BlockF_1",2,"A",2,1,2
"252899",323,1.09815879999951,6,"b",1,"BlockF_1",2,"B",1,2,2
"252899",324,0.774627499999042,6,"b",1,"BlockF_1",2,"B",1,2,2
"252899",326,0.83124239999961,6,"n",1,"BlockN_1",3,"A",2,1,2
"252899",330,0.561260999998922,6,"n",1,"BlockN_1",3,"B",1,2,2
"252899",331,0.756374200000209,6,"b",0,"BlockN_1",3,"A",2,1,2
"252899",332,0.461577899999611,6,"b",0,"BlockN_1",3,"B",1,2,2
"252899",334,0.44173359999877,6,"b",0,"BlockN_1",3,"A",2,1,2
"252899",336,0.582577299999684,6,"b",0,"BlockN_1",3,"B",1,2,2
"252899",339,0.781604900001184,6,"b",0,"BlockN_1",3,"A",2,1,2
"252899",341,0.843189500001245,6,"b",0,"BlockN_1",3,"A",2,1,2
"252899",343,0.415065900000627,6,"b",0,"BlockN_1",3,"B",1,2,2
"252899",344,0.534101400000509,6,"b",0,"BlockN_1",3,"A",2,1,2
"252899",349,0.686679499998718,6,"n",1,"BlockN_1",3,"B",1,2,2
"259662",2,1.0212048999997,6,"f",0,"BlockFvN",1,"A",2,1,2
"259662",6,0.797682299999906,6,"e",1,"BlockFvN",1,"B",1,2,2
"259662",9,0.879586300000028,6,"e",1,"BlockFvN",1,"B",1,2,2
"259662",11,0.965838299999632,6,"e",1,"BlockFvN",1,"B",1,2,2
"259662",12,0.919127499999831,6,"e",1,"BlockFvN",1,"B",1,2,2
"259662",13,0.923071999999593,6,"e",1,"BlockFvN",1,"B",1,2,2
"259662",15,1.47711339999978,6,"f",0,"BlockFvN",1,"A",2,1,2
"259662",16,4.00249380000014,6,"e",1,"BlockFvN",1,"A",2,1,2
"259662",17,0.894426000000294,6,"f",0,"BlockFvN",1,"A",2,1,2
"259662",24,1.20396600000004,6,"f",0,"BlockFvN",1,"A",2,1,2
"259662",51,0.904106899999988,6,"e",1,"BlockFvN",1,"B",1,2,2
"259662",55,0.98175910000009,6,"f",0,"BlockFvN",1,"A",2,1,2
"259662",56,0.871456700000181,6,"e",1,"BlockFvN",1,"B",1,2,2
"259662",58,0.947078000000147,6,"e",1,"BlockFvN",1,"B",1,2,2
"259662",59,1.22150160000001,6,"f",0,"BlockFvN",1,"A",2,1,2
"259662",60,1.02013999999963,6,"e",1,"BlockFvN",1,"B",1,2,2
"259662",64,1.19076280000036,6,"f",0,"BlockFvN",1,"A",2,1,2
"259662",65,0.893485999999939,6,"f",0,"BlockFvN",1,"A",2,1,2
"259662",66,0.866409799999929,6,"f",0,"BlockFvN",1,"A",2,1,2
"259662",68,0.87567399999989,6,"f",0,"BlockFvN",1,"A",2,1,2
"259662",69,0.833428100000219,6,"e",1,"BlockFvN",1,"B",1,2,2
"259662",70,0.75919709999971,6,"e",1,"BlockFvN",1,"B",1,2,2
"259662",74,2.19965060000004,6,"e",1,"BlockFvN",1,"A",2,1,2
"259662",75,0.904955200000131,6,"e",1,"BlockFvN",1,"B",1,2,2
"259662",105,0.820492400000148,6,"f",0,"BlockFvN",1,"A",2,1,2
"259662",107,0.773574199999985,6,"e",1,"BlockFvN",1,"B",1,2,2
"259662",109,0.781874000000244,6,"e",1,"BlockFvN",1,"B",1,2,2
"259662",110,0.75823440000022,6,"f",0,"BlockFvN",1,"A",2,1,2
"259662",111,1.13440189999983,6,"e",1,"BlockFvN",1,"A",2,1,2
"259662",113,0.631003899999996,6,"e",1,"BlockFvN",1,"B",1,2,2
"259662",114,0.725946600000043,6,"f",0,"BlockFvN",1,"A",2,1,2
"259662",115,0.768951300000026,6,"e",1,"BlockFvN",1,"B",1,2,2
"259662",119,2.62314479999986,6,"e",1,"BlockFvN",1,"A",2,1,2
"259662",120,0.95779309999989,6,"e",1,"BlockFvN",1,"B",1,2,2
"259662",122,1.3498612999997,6,"f",0,"BlockFvN",1,"A",2,1,2
"259662",123,0.825520399999732,6,"e",1,"BlockFvN",1,"B",1,2,2
"259662",124,0.832040799999959,6,"e",1,"BlockFvN",1,"B",1,2,2
"259662",151,1.17387229999986,6,"f",0,"BlockFvN",1,"A",2,1,2
"259662",153,0.601642399999946,6,"e",1,"BlockFvN",1,"B",1,2,2
"259662",154,1.17894190000015,6,"e",1,"BlockFvN",1,"B",1,2,2
"259662",155,0.756261600000016,6,"f",0,"BlockFvN",1,"A",2,1,2
"259662",157,0.685217700000067,6,"e",1,"BlockFvN",1,"B",1,2,2
"259662",159,0.806403099999898,6,"f",0,"BlockFvN",1,"A",2,1,2
"259662",162,0.73964019999994,6,"f",0,"BlockFvN",1,"A",2,1,2
"259662",163,0.701714400000128,6,"f",0,"BlockFvN",1,"A",2,1,2
"259662",166,0.929463500000111,6,"e",1,"BlockFvN",1,"B",1,2,2
"259662",168,0.761963999999807,6,"f",0,"BlockFvN",1,"A",2,1,2
"259662",170,0.913527500000328,6,"f",0,"BlockFvN",1,"A",2,1,2
"259662",173,0.787660899999992,6,"e",1,"BlockFvN",1,"B",1,2,2
"259662",175,0.581909300000007,6,"e",1,"BlockFvN",1,"B",1,2,2
"259662",2,1.41966079999929,6,"n",0,"BlockF_1",2,"A",2,1,2
"259662",4,0.81477090000044,6,"b",1,"BlockF_1",2,"B",1,2,2
"259662",5,1.00059989999954,6,"n",0,"BlockF_1",2,"A",2,1,2
"259662",6,0.616025100000115,6,"b",1,"BlockF_1",2,"B",1,2,2
"259662",9,0.64731589999974,6,"b",1,"BlockF_1",2,"B",1,2,2
"259662",11,0.773457500000404,6,"b",1,"BlockF_1",2,"B",1,2,2
"259662",12,0.668479199999638,6,"b",1,"BlockF_1",2,"B",1,2,2
"259662",13,0.58585789999961,6,"b",1,"BlockF_1",2,"B",1,2,2
"259662",15,0.539296699999795,6,"n",0,"BlockF_1",2,"A",2,1,2
"259662",16,0.57477259999996,6,"b",1,"BlockF_1",2,"A",2,1,2
"259662",17,0.63906550000047,6,"b",1,"BlockF_1",2,"A",2,1,2
"259662",19,0.952939100000549,6,"b",1,"BlockF_1",2,"A",2,1,2
"259662",24,1.45692140000028,6,"b",1,"BlockF_1",2,"A",2,1,2
"259662",26,1.23333709999952,6,"n",1,"BlockN_1",3,"A",2,1,2
"259662",27,1.09589570000026,6,"n",1,"BlockN_1",3,"B",1,2,2
"259662",28,0.709773599999608,6,"n",1,"BlockN_1",3,"B",1,2,2
"259662",29,0.65754889999971,6,"b",0,"BlockN_1",3,"A",2,1,2
"259662",30,0.895670099999734,6,"n",1,"BlockN_1",3,"B",1,2,2
"259662",34,0.950783700000102,6,"b",0,"BlockN_1",3,"A",2,1,2
"259662",36,0.907621100000142,6,"n",1,"BlockN_1",3,"A",2,1,2
"259662",38,2.03319610000017,6,"n",1,"BlockN_1",3,"B",1,2,2
"259662",39,1.00134279999929,6,"n",1,"BlockN_1",3,"B",1,2,2
"259662",41,0.663768000000346,6,"n",1,"BlockN_1",3,"B",1,2,2
"259662",43,0.80163039999934,6,"n",1,"BlockN_1",3,"B",1,2,2
"259662",44,1.94679340000039,6,"n",1,"BlockN_1",3,"A",2,1,2
"259662",49,1.30574940000042,6,"b",0,"BlockN_1",3,"A",2,1,2
"259662",105,2.28967399999965,6,"n",0,"BlockF_1",2,"A",2,1,2
"259662",107,0.740951400000085,6,"b",1,"BlockF_1",2,"B",1,2,2
"259662",109,0.616808699999638,6,"b",1,"BlockF_1",2,"B",1,2,2
"259662",110,0.66229199999998,6,"n",0,"BlockF_1",2,"A",2,1,2
"259662",111,0.756623399999626,6,"b",1,"BlockF_1",2,"A",2,1,2
"259662",113,0.65538050000032,6,"b",1,"BlockF_1",2,"B",1,2,2
"259662",114,1.43768160000036,6,"n",0,"BlockF_1",2,"A",2,1,2
"259662",115,0.652407499999754,6,"b",1,"BlockF_1",2,"B",1,2,2
"259662",119,0.555320000000393,6,"n",0,"BlockF_1",2,"A",2,1,2
"259662",120,0.652148399999533,6,"b",1,"BlockF_1",2,"B",1,2,2
"259662",122,1.11534550000033,6,"b",1,"BlockF_1",2,"A",2,1,2
"259662",123,0.742038100000173,6,"b",1,"BlockF_1",2,"B",1,2,2
"259662",124,0.735212200000205,6,"b",1,"BlockF_1",2,"B",1,2,2
"259662",126,1.45181479999974,6,"b",0,"BlockN_1",3,"A",2,1,2
"259662",127,0.63534990000062,6,"n",1,"BlockN_1",3,"B",1,2,2
"259662",130,0.622710200000256,6,"n",1,"BlockN_1",3,"B",1,2,2
"259662",131,0.910107800000333,6,"b",0,"BlockN_1",3,"A",2,1,2
"259662",132,0.849995200000194,6,"n",1,"BlockN_1",3,"B",1,2,2
"259662",134,1.15640519999943,6,"b",0,"BlockN_1",3,"A",2,1,2
"259662",136,0.647249999999985,6,"n",1,"BlockN_1",3,"B",1,2,2
"259662",139,1.42083960000036,6,"n",1,"BlockN_1",3,"A",2,1,2
"259662",141,0.788158899999871,6,"b",0,"BlockN_1",3,"A",2,1,2
"259662",143,0.695307500000126,6,"n",1,"BlockN_1",3,"B",1,2,2
"259662",144,0.642294200000833,6,"n",1,"BlockN_1",3,"A",2,1,2
"259662",146,2.30490660000032,6,"b",0,"BlockN_1",3,"B",1,2,2
"259662",149,2.07847460000085,6,"n",1,"BlockN_1",3,"B",1,2,2
"259662",202,0.610803800000213,6,"n",0,"BlockF_1",2,"A",2,1,2
"259662",206,0.487608200000068,6,"b",1,"BlockF_1",2,"B",1,2,2
"259662",209,0.615143299999545,6,"b",1,"BlockF_1",2,"B",1,2,2
"259662",211,0.729957499999728,6,"b",1,"BlockF_1",2,"B",1,2,2
"259662",212,0.563797900000282,6,"b",1,"BlockF_1",2,"B",1,2,2
"259662",213,1.0138379,6,"b",1,"BlockF_1",2,"B",1,2,2
"259662",215,0.511053999999604,6,"n",0,"BlockF_1",2,"A",2,1,2
"259662",216,0.737561500000083,6,"b",1,"BlockF_1",2,"A",2,1,2
"259662",217,1.37344539999958,6,"n",0,"BlockF_1",2,"A",2,1,2
"259662",219,1.40510279999944,6,"n",0,"BlockF_1",2,"A",2,1,2
"259662",224,1.1174718000002,6,"n",0,"BlockF_1",2,"A",2,1,2
"259662",226,1.21959919999972,6,"b",0,"BlockN_1",3,"A",2,1,2
"259662",227,0.585441599999285,6,"n",1,"BlockN_1",3,"B",1,2,2
"259662",228,1.03300560000025,6,"n",1,"BlockN_1",3,"B",1,2,2
"259662",229,1.32101069999953,6,"n",1,"BlockN_1",3,"A",2,1,2
"259662",230,1.69303480000053,6,"b",0,"BlockN_1",3,"B",1,2,2
"259662",234,0.749553599999672,6,"b",0,"BlockN_1",3,"A",2,1,2
"259662",236,1.35982289999993,6,"n",1,"BlockN_1",3,"A",2,1,2
"259662",238,1.13422050000008,6,"n",1,"BlockN_1",3,"B",1,2,2
"259662",239,1.08168079999996,6,"n",1,"BlockN_1",3,"B",1,2,2
"259662",241,0.937894599999709,6,"n",1,"BlockN_1",3,"B",1,2,2
"259662",243,0.567884699999922,6,"n",1,"BlockN_1",3,"A",2,1,2
"259662",244,0.649384100000134,6,"b",0,"BlockN_1",3,"A",2,1,2
"259662",249,0.576780600000347,6,"n",1,"BlockN_1",3,"A",2,1,2
"259662",305,0.533512599999995,6,"n",0,"BlockF_1",2,"A",2,1,2
"259662",307,0.662597999999889,6,"b",1,"BlockF_1",2,"B",1,2,2
"259662",309,0.565000599999621,6,"b",1,"BlockF_1",2,"B",1,2,2
"259662",310,0.694837999999436,6,"n",0,"BlockF_1",2,"A",2,1,2
